"","age","sex","date","responsetime1","responsetime2","still1","still2","method","sideCile1","sideCile2","picked_ball1","picked_ball2","condition","trial","correct_first","correct_second","correct_all","id","agecat"
"4",7,"female","2021-05-17_09h33.24.743",11.824,9.918,"media/Naming/RechtsSchmiSchmu/Standbild1.png","media/Naming/RechtsSchmiSchmu/Standbild2.png",NA,"right","left","left","right","complex labeling",1,1,1,1,"complex labeling_2021-05-17_09h33.24.743","child"
"5",7,"female","2021-05-17_09h33.24.743",9.652,8.665,"media/Naming/RechtsSchmuSchmi/Standbild1.png","media/Naming/RechtsSchmuSchmi/Standbild2.png",NA,"right","left","right","left","complex labeling",2,1,1,1,"complex labeling_2021-05-17_09h33.24.743","child"
"6",7,"female","2021-05-17_09h33.24.743",9.385,6.984,"media/Naming/LinksSchmuSchmi/Standbild1.png","media/Naming/LinksSchmuSchmi/Standbild2.png",NA,"left","right","right","left","complex labeling",3,1,1,1,"complex labeling_2021-05-17_09h33.24.743","child"
"7",7,"female","2021-05-17_09h33.24.743",7.851,8.677,"media/Naming/RechtsSchmuSchmi/Standbild1.png","media/Naming/RechtsSchmuSchmi/Standbild2.png",NA,"right","left","left","right","complex labeling",4,1,1,1,"complex labeling_2021-05-17_09h33.24.743","child"
"8",7,"female","2021-05-17_09h33.24.743",15.438,7.705,"media/Naming/LinksSchmiSchmu/Standbild1.png","media/Naming/LinksSchmiSchmu/Standbild2.png",NA,"left","right","right","left","complex labeling",5,0,0,0,"complex labeling_2021-05-17_09h33.24.743","child"
"9",7,"female","2021-05-17_09h33.24.743",5.891,11.692,"media/Naming/LinksSchmuSchmi/Standbild1.png","media/Naming/LinksSchmuSchmi/Standbild2.png",NA,"left","right","left","right","complex labeling",6,1,1,1,"complex labeling_2021-05-17_09h33.24.743","child"
"10",7,"female","2021-05-17_09h33.24.743",7.278,7.358,"media/Naming/LinksSchmiSchmu/Standbild1.png","media/Naming/LinksSchmiSchmu/Standbild2.png",NA,"left","right","right","left","complex labeling",7,1,1,1,"complex labeling_2021-05-17_09h33.24.743","child"
"11",7,"female","2021-05-17_09h33.24.743",6.838,8.557,"media/Naming/RechtsSchmiSchmu/Standbild1.png","media/Naming/RechtsSchmiSchmu/Standbild2.png",NA,"right","left","right","left","complex labeling",8,1,1,1,"complex labeling_2021-05-17_09h33.24.743","child"
"16",6,"female","2021-06-16_17h00.51.499",13.29,24.05,"media/Naming/RechtsSchmuSchmi/Standbild1.png","media/Naming/RechtsSchmuSchmi/Standbild2.png","zoom","right","left","left","right","complex labeling",1,1,1,1,"complex labeling_2021-06-16_17h00.51.499","child"
"17",6,"female","2021-06-16_17h00.51.499",6.209,8.556,"media/Naming/RechtsSchmuSchmi/Standbild1.png","media/Naming/RechtsSchmuSchmi/Standbild2.png","zoom","right","left","left","right","complex labeling",2,0,0,0,"complex labeling_2021-06-16_17h00.51.499","child"
"18",6,"female","2021-06-16_17h00.51.499",6.776,6.409,"media/Naming/LinksSchmiSchmu/Standbild1.png","media/Naming/LinksSchmiSchmu/Standbild2.png","zoom","left","right","right","left","complex labeling",3,1,1,1,"complex labeling_2021-06-16_17h00.51.499","child"
"19",6,"female","2021-06-16_17h00.51.499",5.925,5.627,"media/Naming/LinksSchmuSchmi/Standbild1.png","media/Naming/LinksSchmuSchmi/Standbild2.png","zoom","left","right","left","right","complex labeling",4,1,1,1,"complex labeling_2021-06-16_17h00.51.499","child"
"20",6,"female","2021-06-16_17h00.51.499",7.356,6.593,"media/Naming/RechtsSchmiSchmu/Standbild1.png","media/Naming/RechtsSchmiSchmu/Standbild2.png","zoom","right","left","left","right","complex labeling",5,1,1,1,"complex labeling_2021-06-16_17h00.51.499","child"
"21",6,"female","2021-06-16_17h00.51.499",6.676,10.32,"media/Naming/RechtsSchmiSchmu/Standbild1.png","media/Naming/RechtsSchmiSchmu/Standbild2.png","zoom","right","left","right","left","complex labeling",6,1,1,1,"complex labeling_2021-06-16_17h00.51.499","child"
"22",6,"female","2021-06-16_17h00.51.499",7.705,6.058,"media/Naming/LinksSchmuSchmi/Standbild1.png","media/Naming/LinksSchmuSchmi/Standbild2.png","zoom","left","right","left","right","complex labeling",7,0,0,0,"complex labeling_2021-06-16_17h00.51.499","child"
"23",6,"female","2021-06-16_17h00.51.499",6.793,6.398,"media/Naming/LinksSchmiSchmu/Standbild1.png","media/Naming/LinksSchmiSchmu/Standbild2.png","zoom","left","right","left","right","complex labeling",8,1,1,1,"complex labeling_2021-06-16_17h00.51.499","child"
"28",6,"male","2021-07-12_09h41.53.522",9.535,9.083,"media/Naming/LinksSchmuSchmi/Standbild1.png","media/Naming/LinksSchmuSchmi/Standbild2.png","zoom","left","right","left","right","complex labeling",1,1,1,1,"complex labeling_2021-07-12_09h41.53.522","child"
"29",6,"male","2021-07-12_09h41.53.522",9.936,7.594,"media/Naming/LinksSchmuSchmi/Standbild1.png","media/Naming/LinksSchmuSchmi/Standbild2.png","zoom","left","right","right","left","complex labeling",2,1,1,1,"complex labeling_2021-07-12_09h41.53.522","child"
"30",6,"male","2021-07-12_09h41.53.522",8.597,5.352,"media/Naming/RechtsSchmuSchmi/Standbild1.png","media/Naming/RechtsSchmuSchmi/Standbild2.png","zoom","right","left","left","right","complex labeling",3,0,0,0,"complex labeling_2021-07-12_09h41.53.522","child"
"31",6,"male","2021-07-12_09h41.53.522",9.637,5.185,"media/Naming/RechtsSchmuSchmi/Standbild1.png","media/Naming/RechtsSchmuSchmi/Standbild2.png","zoom","right","left","right","left","complex labeling",4,0,0,0,"complex labeling_2021-07-12_09h41.53.522","child"
"32",6,"male","2021-07-12_09h41.53.522",6.825,4.732,"media/Naming/RechtsSchmiSchmu/Standbild1.png","media/Naming/RechtsSchmiSchmu/Standbild2.png","zoom","right","left","right","left","complex labeling",5,1,1,1,"complex labeling_2021-07-12_09h41.53.522","child"
"33",6,"male","2021-07-12_09h41.53.522",8.866,6.271,"media/Naming/LinksSchmiSchmu/Standbild1.png","media/Naming/LinksSchmiSchmu/Standbild2.png","zoom","left","right","right","left","complex labeling",6,1,1,1,"complex labeling_2021-07-12_09h41.53.522","child"
"34",6,"male","2021-07-12_09h41.53.522",8.748,5.35,"media/Naming/RechtsSchmiSchmu/Standbild1.png","media/Naming/RechtsSchmiSchmu/Standbild2.png","zoom","right","left","right","left","complex labeling",7,0,0,0,"complex labeling_2021-07-12_09h41.53.522","child"
"35",6,"male","2021-07-12_09h41.53.522",6.123,6.906,"media/Naming/LinksSchmiSchmu/Standbild1.png","media/Naming/LinksSchmiSchmu/Standbild2.png","zoom","left","right","left","right","complex labeling",8,1,1,1,"complex labeling_2021-07-12_09h41.53.522","child"
"40",6,"female","2021-07-19_16h46.41.392",13.2062,8.7437,"media/Naming/LinksSchmuSchmi/Standbild1.png","media/Naming/LinksSchmuSchmi/Standbild2.png","zoom","left","right","left","right","complex labeling",1,1,1,1,"complex labeling_2021-07-19_16h46.41.392","child"
"41",6,"female","2021-07-19_16h46.41.392",4.3661,4.9938,"media/Naming/RechtsSchmuSchmi/Standbild1.png","media/Naming/RechtsSchmuSchmi/Standbild2.png","zoom","right","left","left","right","complex labeling",2,1,1,1,"complex labeling_2021-07-19_16h46.41.392","child"
"42",6,"female","2021-07-19_16h46.41.392",5.2064,6.5431,"media/Naming/LinksSchmiSchmu/Standbild1.png","media/Naming/LinksSchmiSchmu/Standbild2.png","zoom","left","right","left","right","complex labeling",3,1,1,1,"complex labeling_2021-07-19_16h46.41.392","child"
"43",6,"female","2021-07-19_16h46.41.392",5.0815,5.2452,"media/Naming/RechtsSchmiSchmu/Standbild1.png","media/Naming/RechtsSchmiSchmu/Standbild2.png","zoom","right","left","left","right","complex labeling",4,1,1,1,"complex labeling_2021-07-19_16h46.41.392","child"
"44",6,"female","2021-07-19_16h46.41.392",12.1,7.1107,"media/Naming/LinksSchmuSchmi/Standbild1.png","media/Naming/LinksSchmuSchmi/Standbild2.png","zoom","left","right","left","right","complex labeling",5,0,0,0,"complex labeling_2021-07-19_16h46.41.392","child"
"45",6,"female","2021-07-19_16h46.41.392",4.9394,3.6183,"media/Naming/LinksSchmiSchmu/Standbild1.png","media/Naming/LinksSchmiSchmu/Standbild2.png","zoom","left","right","right","left","complex labeling",6,1,1,1,"complex labeling_2021-07-19_16h46.41.392","child"
"46",6,"female","2021-07-19_16h46.41.392",4.1633,4.9059,"media/Naming/RechtsSchmiSchmu/Standbild1.png","media/Naming/RechtsSchmiSchmu/Standbild2.png","zoom","right","left","left","right","complex labeling",7,0,0,0,"complex labeling_2021-07-19_16h46.41.392","child"
"47",6,"female","2021-07-19_16h46.41.392",3.4924,4.1717,"media/Naming/RechtsSchmuSchmi/Standbild1.png","media/Naming/RechtsSchmuSchmi/Standbild2.png","zoom","right","left","right","left","complex labeling",8,1,1,1,"complex labeling_2021-07-19_16h46.41.392","child"
"52",5,"female","2021-09-24_11h09.34.038",10.1365,13.9889,"media/Naming/LinksSchmiSchmu/Standbild1.png","media/Naming/LinksSchmiSchmu/Standbild2.png","blossin","left","right","left","right","complex labeling",1,0,0,0,"complex labeling_2021-09-24_11h09.34.038","child"
"53",5,"female","2021-09-24_11h09.34.038",6.2802,10.3566,"media/Naming/RechtsSchmiSchmu/Standbild1.png","media/Naming/RechtsSchmiSchmu/Standbild2.png","blossin","right","left","right","right","complex labeling",2,1,0,0,"complex labeling_2021-09-24_11h09.34.038","child"
"54",5,"female","2021-09-24_11h09.34.038",7.3764,11.6123,"media/Naming/RechtsSchmiSchmu/Standbild1.png","media/Naming/RechtsSchmiSchmu/Standbild2.png","blossin","right","left","right","left","complex labeling",3,0,0,0,"complex labeling_2021-09-24_11h09.34.038","child"
"55",5,"female","2021-09-24_11h09.34.038",6.654,19.3332,"media/Naming/LinksSchmuSchmi/Standbild1.png","media/Naming/LinksSchmuSchmi/Standbild2.png","blossin","left","right","right","left","complex labeling",4,1,1,1,"complex labeling_2021-09-24_11h09.34.038","child"
"56",5,"female","2021-09-24_11h09.34.038",6.2686,14.4333,"media/Naming/LinksSchmuSchmi/Standbild1.png","media/Naming/LinksSchmuSchmi/Standbild2.png","blossin","left","right","left","right","complex labeling",5,1,1,1,"complex labeling_2021-09-24_11h09.34.038","child"
"57",5,"female","2021-09-24_11h09.34.038",13.5946,7.9699,"media/Naming/LinksSchmiSchmu/Standbild1.png","media/Naming/LinksSchmiSchmu/Standbild2.png","blossin","left","right","left","right","complex labeling",6,1,1,1,"complex labeling_2021-09-24_11h09.34.038","child"
"58",5,"female","2021-09-24_11h09.34.038",5.953,9.2722,"media/Naming/RechtsSchmuSchmi/Standbild1.png","media/Naming/RechtsSchmuSchmi/Standbild2.png","blossin","right","left","right","left","complex labeling",7,0,0,0,"complex labeling_2021-09-24_11h09.34.038","child"
"59",5,"female","2021-09-24_11h09.34.038",5.72,15.3814,"media/Naming/RechtsSchmuSchmi/Standbild1.png","media/Naming/RechtsSchmuSchmi/Standbild2.png","blossin","right","left","left","right","complex labeling",8,0,0,0,"complex labeling_2021-09-24_11h09.34.038","child"
"64",6,"female","2021-09-24_13h34.54.198",34.579,11.8573,"media/Naming/LinksSchmiSchmu/Standbild1.png","media/Naming/LinksSchmiSchmu/Standbild2.png","blossin","left","right","left","right","complex labeling",1,1,1,1,"complex labeling_2021-09-24_13h34.54.198","child"
"65",6,"female","2021-09-24_13h34.54.198",6.1956,11.4318,"media/Naming/RechtsSchmuSchmi/Standbild1.png","media/Naming/RechtsSchmuSchmi/Standbild2.png","blossin","right","left","left","right","complex labeling",2,1,1,1,"complex labeling_2021-09-24_13h34.54.198","child"
"66",6,"female","2021-09-24_13h34.54.198",6.3852,5.7058,"media/Naming/LinksSchmuSchmi/Standbild1.png","media/Naming/LinksSchmuSchmi/Standbild2.png","blossin","left","right","right","left","complex labeling",3,1,1,1,"complex labeling_2021-09-24_13h34.54.198","child"
"67",6,"female","2021-09-24_13h34.54.198",7.6361,15.6726,"media/Naming/LinksSchmiSchmu/Standbild1.png","media/Naming/LinksSchmiSchmu/Standbild2.png","blossin","left","right","left","right","complex labeling",4,0,0,0,"complex labeling_2021-09-24_13h34.54.198","child"
"68",6,"female","2021-09-24_13h34.54.198",6.2177,9.3042,"media/Naming/LinksSchmuSchmi/Standbild1.png","media/Naming/LinksSchmuSchmi/Standbild2.png","blossin","left","right","left","right","complex labeling",5,1,1,1,"complex labeling_2021-09-24_13h34.54.198","child"
"69",6,"female","2021-09-24_13h34.54.198",5.7616,9.1205,"media/Naming/RechtsSchmuSchmi/Standbild1.png","media/Naming/RechtsSchmuSchmi/Standbild2.png","blossin","right","left","right","left","complex labeling",6,1,1,1,"complex labeling_2021-09-24_13h34.54.198","child"
"70",6,"female","2021-09-24_13h34.54.198",6.6142,9.0028,"media/Naming/RechtsSchmiSchmu/Standbild1.png","media/Naming/RechtsSchmiSchmu/Standbild2.png","blossin","right","left","right","left","complex labeling",7,0,0,0,"complex labeling_2021-09-24_13h34.54.198","child"
"71",6,"female","2021-09-24_13h34.54.198",5.754,5.837,"media/Naming/RechtsSchmiSchmu/Standbild1.png","media/Naming/RechtsSchmiSchmu/Standbild2.png","blossin","right","left","right","left","complex labeling",8,1,1,1,"complex labeling_2021-09-24_13h34.54.198","child"
"76",5,"male","2021-10-25_10h11.22.899",13.6675,12.757,"media/Naming/RechtsSchmiSchmu/Standbild1.png","media/Naming/RechtsSchmiSchmu/Standbild2.png","blossin","right","left","right","right","complex labeling",1,1,0,0,"complex labeling_2021-10-25_10h11.22.899","child"
"77",5,"male","2021-10-25_10h11.22.899",9.229,10.6566,"media/Naming/RechtsSchmiSchmu/Standbild1.png","media/Naming/RechtsSchmiSchmu/Standbild2.png","blossin","right","left","left","right","complex labeling",2,1,1,1,"complex labeling_2021-10-25_10h11.22.899","child"
"78",5,"male","2021-10-25_10h11.22.899",10.8956,9.9298,"media/Naming/LinksSchmuSchmi/Standbild1.png","media/Naming/LinksSchmuSchmi/Standbild2.png","blossin","left","right","left","right","complex labeling",3,0,0,0,"complex labeling_2021-10-25_10h11.22.899","child"
"79",5,"male","2021-10-25_10h11.22.899",10.39,10.0623,"media/Naming/LinksSchmiSchmu/Standbild1.png","media/Naming/LinksSchmiSchmu/Standbild2.png","blossin","left","right","left","right","complex labeling",4,1,1,1,"complex labeling_2021-10-25_10h11.22.899","child"
"80",5,"male","2021-10-25_10h11.22.899",7.789,9.5193,"media/Naming/RechtsSchmuSchmi/Standbild1.png","media/Naming/RechtsSchmuSchmi/Standbild2.png","blossin","right","left","left","right","complex labeling",5,1,1,1,"complex labeling_2021-10-25_10h11.22.899","child"
"81",5,"male","2021-10-25_10h11.22.899",5.9571,5.4058,"media/Naming/LinksSchmuSchmi/Standbild1.png","media/Naming/LinksSchmuSchmi/Standbild2.png","blossin","left","right","left","right","complex labeling",6,1,1,1,"complex labeling_2021-10-25_10h11.22.899","child"
"82",5,"male","2021-10-25_10h11.22.899",8.3639,5.0696,"media/Naming/LinksSchmiSchmu/Standbild1.png","media/Naming/LinksSchmiSchmu/Standbild2.png","blossin","left","right","left","right","complex labeling",7,0,0,0,"complex labeling_2021-10-25_10h11.22.899","child"
"83",5,"male","2021-10-25_10h11.22.899",4.7972,5.7555,"media/Naming/RechtsSchmuSchmi/Standbild1.png","media/Naming/RechtsSchmuSchmi/Standbild2.png","blossin","right","left","right","left","complex labeling",8,1,1,1,"complex labeling_2021-10-25_10h11.22.899","child"
"88",6,"female","2021-10-25_13h22.38.136",9.9145,6.1012,"media/Naming/LinksSchmiSchmu/Standbild1.png","media/Naming/LinksSchmiSchmu/Standbild2.png","blossin","left","right","right","left","complex labeling",1,0,0,0,"complex labeling_2021-10-25_13h22.38.136","child"
"89",6,"female","2021-10-25_13h22.38.136",6.9026,8.0727,"media/Naming/LinksSchmuSchmi/Standbild1.png","media/Naming/LinksSchmuSchmi/Standbild2.png","blossin","left","right","right","right","complex labeling",2,1,0,0,"complex labeling_2021-10-25_13h22.38.136","child"
"90",6,"female","2021-10-25_13h22.38.136",5.6695,9.441,"media/Naming/LinksSchmiSchmu/Standbild1.png","media/Naming/LinksSchmiSchmu/Standbild2.png","blossin","left","right","right","left","complex labeling",3,1,1,1,"complex labeling_2021-10-25_13h22.38.136","child"
"91",6,"female","2021-10-25_13h22.38.136",4.7793,4.6216,"media/Naming/LinksSchmuSchmi/Standbild1.png","media/Naming/LinksSchmuSchmi/Standbild2.png","blossin","left","right","right","left","complex labeling",4,0,0,0,"complex labeling_2021-10-25_13h22.38.136","child"
"92",6,"female","2021-10-25_13h22.38.136",4.5815,4.4862,"media/Naming/RechtsSchmuSchmi/Standbild1.png","media/Naming/RechtsSchmuSchmi/Standbild2.png","blossin","right","left","left","right","complex labeling",5,1,1,1,"complex labeling_2021-10-25_13h22.38.136","child"
"93",6,"female","2021-10-25_13h22.38.136",5.0711,4.8294,"media/Naming/RechtsSchmiSchmu/Standbild1.png","media/Naming/RechtsSchmiSchmu/Standbild2.png","blossin","right","left","left","right","complex labeling",6,0,0,0,"complex labeling_2021-10-25_13h22.38.136","child"
"94",6,"female","2021-10-25_13h22.38.136",6.9008,5.0655,"media/Naming/RechtsSchmiSchmu/Standbild1.png","media/Naming/RechtsSchmiSchmu/Standbild2.png","blossin","right","left","right","left","complex labeling",7,0,0,0,"complex labeling_2021-10-25_13h22.38.136","child"
"95",6,"female","2021-10-25_13h22.38.136",4.3553,3.8483,"media/Naming/RechtsSchmuSchmi/Standbild1.png","media/Naming/RechtsSchmuSchmi/Standbild2.png","blossin","right","left","left","right","complex labeling",8,0,0,0,"complex labeling_2021-10-25_13h22.38.136","child"
"100",5,"female","2021-10-25_13h36.43.623",51.205,8.3402,"media/Naming/RechtsSchmuSchmi/Standbild1.png","media/Naming/RechtsSchmuSchmi/Standbild2.png","blossin","right","left","left","right","complex labeling",1,1,1,1,"complex labeling_2021-10-25_13h36.43.623","child"
"101",5,"female","2021-10-25_13h36.43.623",5.5661,8.6001,"media/Naming/LinksSchmuSchmi/Standbild1.png","media/Naming/LinksSchmuSchmi/Standbild2.png","blossin","left","right","right","left","complex labeling",2,0,0,0,"complex labeling_2021-10-25_13h36.43.623","child"
"102",5,"female","2021-10-25_13h36.43.623",6.6678,5.1296,"media/Naming/LinksSchmuSchmi/Standbild1.png","media/Naming/LinksSchmuSchmi/Standbild2.png","blossin","left","right","left","left","complex labeling",3,0,1,0,"complex labeling_2021-10-25_13h36.43.623","child"
"103",5,"female","2021-10-25_13h36.43.623",6.4423,4.1687,"media/Naming/RechtsSchmuSchmi/Standbild1.png","media/Naming/RechtsSchmuSchmi/Standbild2.png","blossin","right","left","left","left","complex labeling",4,0,1,0,"complex labeling_2021-10-25_13h36.43.623","child"
"104",5,"female","2021-10-25_13h36.43.623",6.4755,5.5171,"media/Naming/LinksSchmiSchmu/Standbild1.png","media/Naming/LinksSchmiSchmu/Standbild2.png","blossin","left","right","left","left","complex labeling",5,0,1,0,"complex labeling_2021-10-25_13h36.43.623","child"
"105",5,"female","2021-10-25_13h36.43.623",6.4246,4.4511,"media/Naming/RechtsSchmiSchmu/Standbild1.png","media/Naming/RechtsSchmiSchmu/Standbild2.png","blossin","right","left","right","right","complex labeling",6,0,1,0,"complex labeling_2021-10-25_13h36.43.623","child"
"106",5,"female","2021-10-25_13h36.43.623",5.7902,5.348,"media/Naming/LinksSchmiSchmu/Standbild1.png","media/Naming/LinksSchmiSchmu/Standbild2.png","blossin","left","right","right","right","complex labeling",7,0,1,0,"complex labeling_2021-10-25_13h36.43.623","child"
"107",5,"female","2021-10-25_13h36.43.623",5.375,4.4953,"media/Naming/RechtsSchmiSchmu/Standbild1.png","media/Naming/RechtsSchmiSchmu/Standbild2.png","blossin","right","left","left","left","complex labeling",8,0,1,0,"complex labeling_2021-10-25_13h36.43.623","child"
"112",5,"male","2021-10-29_09h28.28.361",13.1805,8.6477,"media/Naming/LinksSchmiSchmu/Standbild1.png","media/Naming/LinksSchmiSchmu/Standbild2.png","blossin","left","right","right","left","complex labeling",1,1,1,1,"complex labeling_2021-10-29_09h28.28.361","child"
"113",5,"male","2021-10-29_09h28.28.361",8.557,8.3734,"media/Naming/LinksSchmuSchmi/Standbild1.png","media/Naming/LinksSchmuSchmi/Standbild2.png","blossin","left","right","right","left","complex labeling",2,1,1,1,"complex labeling_2021-10-29_09h28.28.361","child"
"114",5,"male","2021-10-29_09h28.28.361",6.1803,6.398,"media/Naming/RechtsSchmiSchmu/Standbild1.png","media/Naming/RechtsSchmiSchmu/Standbild2.png","blossin","right","left","left","right","complex labeling",3,1,1,1,"complex labeling_2021-10-29_09h28.28.361","child"
"115",5,"male","2021-10-29_09h28.28.361",7.0802,6.3232,"media/Naming/LinksSchmiSchmu/Standbild1.png","media/Naming/LinksSchmiSchmu/Standbild2.png","blossin","left","right","right","left","complex labeling",4,0,0,0,"complex labeling_2021-10-29_09h28.28.361","child"
"116",5,"male","2021-10-29_09h28.28.361",6.6637,6.7051,"media/Naming/RechtsSchmiSchmu/Standbild1.png","media/Naming/RechtsSchmiSchmu/Standbild2.png","blossin","right","left","left","left","complex labeling",5,0,1,0,"complex labeling_2021-10-29_09h28.28.361","child"
"117",5,"male","2021-10-29_09h28.28.361",5.5802,5.437,"media/Naming/LinksSchmuSchmi/Standbild1.png","media/Naming/LinksSchmuSchmi/Standbild2.png","blossin","left","right","left","right","complex labeling",6,1,1,1,"complex labeling_2021-10-29_09h28.28.361","child"
"118",5,"male","2021-10-29_09h28.28.361",5.5308,4.7572,"media/Naming/RechtsSchmuSchmi/Standbild1.png","media/Naming/RechtsSchmuSchmi/Standbild2.png","blossin","right","left","left","right","complex labeling",7,0,0,0,"complex labeling_2021-10-29_09h28.28.361","child"
"119",5,"male","2021-10-29_09h28.28.361",4.4623,4.5668,"media/Naming/RechtsSchmuSchmi/Standbild1.png","media/Naming/RechtsSchmuSchmi/Standbild2.png","blossin","right","left","left","left","complex labeling",8,1,0,0,"complex labeling_2021-10-29_09h28.28.361","child"
"124",5,"male","2021-10-29_09h43.44.588",30.3303,17.7793,"media/Naming/RechtsSchmiSchmu/Standbild1.png","media/Naming/RechtsSchmiSchmu/Standbild2.png","blossin","right","left","right","left","complex labeling",1,0,0,0,"complex labeling_2021-10-29_09h43.44.588","child"
"125",5,"male","2021-10-29_09h43.44.588",9.3734,10.0296,"media/Naming/RechtsSchmuSchmi/Standbild1.png","media/Naming/RechtsSchmuSchmi/Standbild2.png","blossin","right","left","right","left","complex labeling",2,1,1,1,"complex labeling_2021-10-29_09h43.44.588","child"
"126",5,"male","2021-10-29_09h43.44.588",8.0041,12.2711,"media/Naming/RechtsSchmuSchmi/Standbild1.png","media/Naming/RechtsSchmuSchmi/Standbild2.png","blossin","right","left","left","left","complex labeling",3,1,0,0,"complex labeling_2021-10-29_09h43.44.588","child"
"127",5,"male","2021-10-29_09h43.44.588",8.5124,8.1103,"media/Naming/RechtsSchmiSchmu/Standbild1.png","media/Naming/RechtsSchmiSchmu/Standbild2.png","blossin","right","left","right","left","complex labeling",4,1,1,1,"complex labeling_2021-10-29_09h43.44.588","child"
"128",5,"male","2021-10-29_09h43.44.588",6.0671,6.5572,"media/Naming/LinksSchmuSchmi/Standbild1.png","media/Naming/LinksSchmuSchmi/Standbild2.png","blossin","left","right","right","left","complex labeling",5,1,1,1,"complex labeling_2021-10-29_09h43.44.588","child"
"129",5,"male","2021-10-29_09h43.44.588",5.7626,5.8167,"media/Naming/LinksSchmiSchmu/Standbild1.png","media/Naming/LinksSchmiSchmu/Standbild2.png","blossin","left","right","right","left","complex labeling",6,1,1,1,"complex labeling_2021-10-29_09h43.44.588","child"
"130",5,"male","2021-10-29_09h43.44.588",5.0031,5.0901,"media/Naming/LinksSchmuSchmi/Standbild1.png","media/Naming/LinksSchmuSchmi/Standbild2.png","blossin","left","right","left","right","complex labeling",7,1,1,1,"complex labeling_2021-10-29_09h43.44.588","child"
"131",5,"male","2021-10-29_09h43.44.588",5.6753,6.3884,"media/Naming/LinksSchmiSchmu/Standbild1.png","media/Naming/LinksSchmiSchmu/Standbild2.png","blossin","left","right","left","left","complex labeling",8,1,0,0,"complex labeling_2021-10-29_09h43.44.588","child"
"136",5,"male","2021-10-29_09h57.21.060",10.0919,8.8154,"media/Naming/RechtsSchmuSchmi/Standbild1.png","media/Naming/RechtsSchmuSchmi/Standbild2.png","blossin","right","left","right","left","complex labeling",1,1,1,1,"complex labeling_2021-10-29_09h57.21.060","child"
"137",5,"male","2021-10-29_09h57.21.060",7.6919,7.2519,"media/Naming/RechtsSchmiSchmu/Standbild1.png","media/Naming/RechtsSchmiSchmu/Standbild2.png","blossin","right","left","left","right","complex labeling",2,1,1,1,"complex labeling_2021-10-29_09h57.21.060","child"
"138",5,"male","2021-10-29_09h57.21.060",6.7592,7.396,"media/Naming/LinksSchmiSchmu/Standbild1.png","media/Naming/LinksSchmiSchmu/Standbild2.png","blossin","left","right","left","right","complex labeling",3,0,0,0,"complex labeling_2021-10-29_09h57.21.060","child"
"139",5,"male","2021-10-29_09h57.21.060",5.6476,6.985,"media/Naming/LinksSchmiSchmu/Standbild1.png","media/Naming/LinksSchmiSchmu/Standbild2.png","blossin","left","right","right","left","complex labeling",4,0,0,0,"complex labeling_2021-10-29_09h57.21.060","child"
"140",5,"male","2021-10-29_09h57.21.060",7.0042,6.5777,"media/Naming/RechtsSchmiSchmu/Standbild1.png","media/Naming/RechtsSchmiSchmu/Standbild2.png","blossin","right","left","right","left","complex labeling",5,1,1,1,"complex labeling_2021-10-29_09h57.21.060","child"
"141",5,"male","2021-10-29_09h57.21.060",5.5188,5.6105,"media/Naming/LinksSchmuSchmi/Standbild1.png","media/Naming/LinksSchmuSchmi/Standbild2.png","blossin","left","right","left","right","complex labeling",6,0,0,0,"complex labeling_2021-10-29_09h57.21.060","child"
"142",5,"male","2021-10-29_09h57.21.060",5.7117,5.5637,"media/Naming/LinksSchmuSchmi/Standbild1.png","media/Naming/LinksSchmuSchmi/Standbild2.png","blossin","left","right","left","right","complex labeling",7,1,1,1,"complex labeling_2021-10-29_09h57.21.060","child"
"143",5,"male","2021-10-29_09h57.21.060",4.6261,6.1112,"media/Naming/RechtsSchmuSchmi/Standbild1.png","media/Naming/RechtsSchmuSchmi/Standbild2.png","blossin","right","left","right","left","complex labeling",8,0,0,0,"complex labeling_2021-10-29_09h57.21.060","child"
"148",5,"female","2021-10-29_10h30.07.996",14.3386,15.9818,"media/Naming/RechtsSchmuSchmi/Standbild1.png","media/Naming/RechtsSchmuSchmi/Standbild2.png","blossin","right","left","right","left","complex labeling",1,1,1,1,"complex labeling_2021-10-29_10h30.07.996","child"
"149",5,"female","2021-10-29_10h30.07.996",16.1102,18.2851,"media/Naming/LinksSchmiSchmu/Standbild1.png","media/Naming/LinksSchmiSchmu/Standbild2.png","blossin","left","right","right","left","complex labeling",2,0,0,0,"complex labeling_2021-10-29_10h30.07.996","child"
"150",5,"female","2021-10-29_10h30.07.996",16.7608,17.4646,"media/Naming/RechtsSchmiSchmu/Standbild1.png","media/Naming/RechtsSchmiSchmu/Standbild2.png","blossin","right","left","right","left","complex labeling",3,1,1,1,"complex labeling_2021-10-29_10h30.07.996","child"
"151",5,"female","2021-10-29_10h30.07.996",21.4671,8.2405,"media/Naming/LinksSchmiSchmu/Standbild1.png","media/Naming/LinksSchmiSchmu/Standbild2.png","blossin","left","right","right","left","complex labeling",4,1,1,1,"complex labeling_2021-10-29_10h30.07.996","child"
"152",5,"female","2021-10-29_10h30.07.996",7.6828,10.1811,"media/Naming/LinksSchmuSchmi/Standbild1.png","media/Naming/LinksSchmuSchmi/Standbild2.png","blossin","left","right","right","left","complex labeling",5,0,0,0,"complex labeling_2021-10-29_10h30.07.996","child"
"153",5,"female","2021-10-29_10h30.07.996",9.6644,9.2218,"media/Naming/RechtsSchmiSchmu/Standbild1.png","media/Naming/RechtsSchmiSchmu/Standbild2.png","blossin","right","left","right","left","complex labeling",6,0,0,0,"complex labeling_2021-10-29_10h30.07.996","child"
"154",5,"female","2021-10-29_10h30.07.996",9.2497,9.0374,"media/Naming/LinksSchmuSchmi/Standbild1.png","media/Naming/LinksSchmuSchmi/Standbild2.png","blossin","left","right","left","right","complex labeling",7,0,0,0,"complex labeling_2021-10-29_10h30.07.996","child"
"155",5,"female","2021-10-29_10h30.07.996",7.2864,8.4252,"media/Naming/RechtsSchmuSchmi/Standbild1.png","media/Naming/RechtsSchmuSchmi/Standbild2.png","blossin","right","left","right","right","complex labeling",8,0,1,0,"complex labeling_2021-10-29_10h30.07.996","child"
"160",11,"male","2021-11-04_10h17.58.660",6.7073,5.5787,"media/Naming/LinksSchmiSchmu/Standbild1.png","media/Naming/LinksSchmiSchmu/Standbild2.png","blossin","left","right","left","right","complex labeling",1,1,1,1,"complex labeling_2021-11-04_10h17.58.660","teen"
"161",11,"male","2021-11-04_10h17.58.660",5.8982,5.8023,"media/Naming/RechtsSchmiSchmu/Standbild1.png","media/Naming/RechtsSchmiSchmu/Standbild2.png","blossin","right","left","right","left","complex labeling",2,1,1,1,"complex labeling_2021-11-04_10h17.58.660","teen"
"162",11,"male","2021-11-04_10h17.58.660",4.9656,4.6394,"media/Naming/RechtsSchmuSchmi/Standbild1.png","media/Naming/RechtsSchmuSchmi/Standbild2.png","blossin","right","left","right","left","complex labeling",3,1,1,1,"complex labeling_2021-11-04_10h17.58.660","teen"
"163",11,"male","2021-11-04_10h17.58.660",8.7826,4.6194,"media/Naming/RechtsSchmiSchmu/Standbild1.png","media/Naming/RechtsSchmiSchmu/Standbild2.png","blossin","right","left","right","left","complex labeling",4,0,0,0,"complex labeling_2021-11-04_10h17.58.660","teen"
"164",11,"male","2021-11-04_10h17.58.660",4.3586,4.6315,"media/Naming/LinksSchmuSchmi/Standbild1.png","media/Naming/LinksSchmuSchmi/Standbild2.png","blossin","left","right","left","right","complex labeling",5,1,1,1,"complex labeling_2021-11-04_10h17.58.660","teen"
"165",11,"male","2021-11-04_10h17.58.660",5.0878,6.0586,"media/Naming/LinksSchmiSchmu/Standbild1.png","media/Naming/LinksSchmiSchmu/Standbild2.png","blossin","left","right","right","left","complex labeling",6,1,1,1,"complex labeling_2021-11-04_10h17.58.660","teen"
"166",11,"male","2021-11-04_10h17.58.660",4.7126,3.8491,"media/Naming/LinksSchmuSchmi/Standbild1.png","media/Naming/LinksSchmuSchmi/Standbild2.png","blossin","left","right","right","left","complex labeling",7,1,1,1,"complex labeling_2021-11-04_10h17.58.660","teen"
"167",11,"male","2021-11-04_10h17.58.660",4.2663,3.6284,"media/Naming/RechtsSchmuSchmi/Standbild1.png","media/Naming/RechtsSchmuSchmi/Standbild2.png","blossin","right","left","left","right","complex labeling",8,1,1,1,"complex labeling_2021-11-04_10h17.58.660","teen"
"172",10,"female","2021-11-04_10h33.31.754",8.6922,5.0086,"media/Naming/RechtsSchmiSchmu/Standbild1.png","media/Naming/RechtsSchmiSchmu/Standbild2.png","blossin","right","left","right","left","complex labeling",1,1,1,1,"complex labeling_2021-11-04_10h33.31.754","teen"
"173",10,"female","2021-11-04_10h33.31.754",5.0477,4.5332,"media/Naming/RechtsSchmiSchmu/Standbild1.png","media/Naming/RechtsSchmiSchmu/Standbild2.png","blossin","right","left","left","right","complex labeling",2,1,1,1,"complex labeling_2021-11-04_10h33.31.754","teen"
"174",10,"female","2021-11-04_10h33.31.754",4.5934,4.1097,"media/Naming/RechtsSchmuSchmi/Standbild1.png","media/Naming/RechtsSchmuSchmi/Standbild2.png","blossin","right","left","right","left","complex labeling",3,1,1,1,"complex labeling_2021-11-04_10h33.31.754","teen"
"175",10,"female","2021-11-04_10h33.31.754",4.0701,4.1955,"media/Naming/LinksSchmuSchmi/Standbild1.png","media/Naming/LinksSchmuSchmi/Standbild2.png","blossin","left","right","left","right","complex labeling",4,1,1,1,"complex labeling_2021-11-04_10h33.31.754","teen"
"176",10,"female","2021-11-04_10h33.31.754",6.5422,4.2305,"media/Naming/LinksSchmuSchmi/Standbild1.png","media/Naming/LinksSchmuSchmi/Standbild2.png","blossin","left","right","left","right","complex labeling",5,0,0,0,"complex labeling_2021-11-04_10h33.31.754","teen"
"177",10,"female","2021-11-04_10h33.31.754",4.9513,4.2421,"media/Naming/LinksSchmiSchmu/Standbild1.png","media/Naming/LinksSchmiSchmu/Standbild2.png","blossin","left","right","left","right","complex labeling",6,1,1,1,"complex labeling_2021-11-04_10h33.31.754","teen"
"178",10,"female","2021-11-04_10h33.31.754",4.5138,4.4441,"media/Naming/RechtsSchmuSchmi/Standbild1.png","media/Naming/RechtsSchmuSchmi/Standbild2.png","blossin","right","left","left","right","complex labeling",7,1,1,1,"complex labeling_2021-11-04_10h33.31.754","teen"
"179",10,"female","2021-11-04_10h33.31.754",5.2218,3.8675,"media/Naming/LinksSchmiSchmu/Standbild1.png","media/Naming/LinksSchmiSchmu/Standbild2.png","blossin","left","right","right","left","complex labeling",8,1,1,1,"complex labeling_2021-11-04_10h33.31.754","teen"
"184",5,"male","2021-11-05_10h05.38.995",8.5908,7.9175,"media/Naming/RechtsSchmuSchmi/Standbild1.png","media/Naming/RechtsSchmuSchmi/Standbild2.png","blossin","right","left","right","left","complex labeling",1,1,1,1,"complex labeling_2021-11-05_10h05.38.995","child"
"185",5,"male","2021-11-05_10h05.38.995",7.525,6.4943,"media/Naming/LinksSchmuSchmi/Standbild1.png","media/Naming/LinksSchmuSchmi/Standbild2.png","blossin","left","right","right","left","complex labeling",2,0,0,0,"complex labeling_2021-11-05_10h05.38.995","child"
"186",5,"male","2021-11-05_10h05.38.995",7.1515,6.2062,"media/Naming/RechtsSchmiSchmu/Standbild1.png","media/Naming/RechtsSchmiSchmu/Standbild2.png","blossin","right","left","right","left","complex labeling",3,0,0,0,"complex labeling_2021-11-05_10h05.38.995","child"
"187",5,"male","2021-11-05_10h05.38.995",11.5003,6.3717,"media/Naming/RechtsSchmiSchmu/Standbild1.png","media/Naming/RechtsSchmiSchmu/Standbild2.png","blossin","right","left","left","right","complex labeling",4,0,0,0,"complex labeling_2021-11-05_10h05.38.995","child"
"188",5,"male","2021-11-05_10h05.38.995",6.4076,5.9205,"media/Naming/LinksSchmiSchmu/Standbild1.png","media/Naming/LinksSchmiSchmu/Standbild2.png","blossin","left","right","right","right","complex labeling",5,0,1,0,"complex labeling_2021-11-05_10h05.38.995","child"
"189",5,"male","2021-11-05_10h05.38.995",5.5984,6.6413,"media/Naming/LinksSchmiSchmu/Standbild1.png","media/Naming/LinksSchmiSchmu/Standbild2.png","blossin","left","right","right","left","complex labeling",6,1,1,1,"complex labeling_2021-11-05_10h05.38.995","child"
"190",5,"male","2021-11-05_10h05.38.995",5.2863,8.2604,"media/Naming/RechtsSchmuSchmi/Standbild1.png","media/Naming/RechtsSchmuSchmi/Standbild2.png","blossin","right","left","right","right","complex labeling",7,0,1,0,"complex labeling_2021-11-05_10h05.38.995","child"
"191",5,"male","2021-11-05_10h05.38.995",6.5971,5.8703,"media/Naming/LinksSchmuSchmi/Standbild1.png","media/Naming/LinksSchmuSchmi/Standbild2.png","blossin","left","right","right","left","complex labeling",8,1,1,1,"complex labeling_2021-11-05_10h05.38.995","child"
"196",5,"male","2021-11-05_10h35.35.200",11.3945,8.2856,"media/Naming/LinksSchmuSchmi/Standbild1.png","media/Naming/LinksSchmuSchmi/Standbild2.png","blossin","left","right","right","left","complex labeling",1,1,1,1,"complex labeling_2021-11-05_10h35.35.200","child"
"197",5,"male","2021-11-05_10h35.35.200",11.7799,12.8296,"media/Naming/RechtsSchmuSchmi/Standbild1.png","media/Naming/RechtsSchmuSchmi/Standbild2.png","blossin","right","left","left","right","complex labeling",2,0,0,0,"complex labeling_2021-11-05_10h35.35.200","child"
"198",5,"male","2021-11-05_10h35.35.200",7.1182,8.4679,"media/Naming/LinksSchmiSchmu/Standbild1.png","media/Naming/LinksSchmiSchmu/Standbild2.png","blossin","left","right","left","right","complex labeling",3,0,0,0,"complex labeling_2021-11-05_10h35.35.200","child"
"199",5,"male","2021-11-05_10h35.35.200",8.3259,8.8862,"media/Naming/LinksSchmiSchmu/Standbild1.png","media/Naming/LinksSchmiSchmu/Standbild2.png","blossin","left","right","left","right","complex labeling",4,1,1,1,"complex labeling_2021-11-05_10h35.35.200","child"
"200",5,"male","2021-11-05_10h35.35.200",8.4547,14.077,"media/Naming/LinksSchmuSchmi/Standbild1.png","media/Naming/LinksSchmuSchmi/Standbild2.png","blossin","left","right","left","left","complex labeling",5,1,0,0,"complex labeling_2021-11-05_10h35.35.200","child"
"201",5,"male","2021-11-05_10h35.35.200",5.2836,18.525,"media/Naming/RechtsSchmiSchmu/Standbild1.png","media/Naming/RechtsSchmiSchmu/Standbild2.png","blossin","right","left","left","right","complex labeling",6,1,1,1,"complex labeling_2021-11-05_10h35.35.200","child"
"202",5,"male","2021-11-05_10h35.35.200",5.8345,11.0611,"media/Naming/RechtsSchmuSchmi/Standbild1.png","media/Naming/RechtsSchmuSchmi/Standbild2.png","blossin","right","left","right","left","complex labeling",7,0,0,0,"complex labeling_2021-11-05_10h35.35.200","child"
"203",5,"male","2021-11-05_10h35.35.200",6.6295,8.4553,"media/Naming/RechtsSchmiSchmu/Standbild1.png","media/Naming/RechtsSchmiSchmu/Standbild2.png","blossin","right","left","right","left","complex labeling",8,1,1,1,"complex labeling_2021-11-05_10h35.35.200","child"
"208",5,"female","2021-11-05_10h51.07.285",208.9604,76.1398,"media/Naming/LinksSchmuSchmi/Standbild1.png","media/Naming/LinksSchmuSchmi/Standbild2.png","blossin","left","right","left","left","complex labeling",1,1,0,0,"complex labeling_2021-11-05_10h51.07.285","child"
"209",5,"female","2021-11-05_10h51.07.285",11.4747,13.9148,"media/Naming/LinksSchmiSchmu/Standbild1.png","media/Naming/LinksSchmiSchmu/Standbild2.png","blossin","left","right","right","left","complex labeling",2,1,1,1,"complex labeling_2021-11-05_10h51.07.285","child"
"210",5,"female","2021-11-05_10h51.07.285",18.4394,15.4293,"media/Naming/LinksSchmuSchmi/Standbild1.png","media/Naming/LinksSchmuSchmi/Standbild2.png","blossin","left","right","left","right","complex labeling",3,0,0,0,"complex labeling_2021-11-05_10h51.07.285","child"
"211",5,"female","2021-11-05_10h51.07.285",12.4715,9.3745,"media/Naming/RechtsSchmuSchmi/Standbild1.png","media/Naming/RechtsSchmuSchmi/Standbild2.png","blossin","right","left","right","left","complex labeling",4,0,0,0,"complex labeling_2021-11-05_10h51.07.285","child"
"212",5,"female","2021-11-05_10h51.07.285",7.3884,7.6664,"media/Naming/RechtsSchmiSchmu/Standbild1.png","media/Naming/RechtsSchmiSchmu/Standbild2.png","blossin","right","left","left","right","complex labeling",5,1,1,1,"complex labeling_2021-11-05_10h51.07.285","child"
"213",5,"female","2021-11-05_10h51.07.285",12.2519,5.9673,"media/Naming/RechtsSchmiSchmu/Standbild1.png","media/Naming/RechtsSchmiSchmu/Standbild2.png","blossin","right","left","right","left","complex labeling",6,1,1,1,"complex labeling_2021-11-05_10h51.07.285","child"
"214",5,"female","2021-11-05_10h51.07.285",9.05,7.2017,"media/Naming/LinksSchmiSchmu/Standbild1.png","media/Naming/LinksSchmiSchmu/Standbild2.png","blossin","left","right","left","right","complex labeling",7,1,1,1,"complex labeling_2021-11-05_10h51.07.285","child"
"215",5,"female","2021-11-05_10h51.07.285",9.0113,6.9037,"media/Naming/RechtsSchmuSchmi/Standbild1.png","media/Naming/RechtsSchmuSchmi/Standbild2.png","blossin","right","left","left","right","complex labeling",8,0,0,0,"complex labeling_2021-11-05_10h51.07.285","child"
"220",6,"female","2021-11-05_12h22.36.831",16.781,9.02,"media/Naming/LinksSchmiSchmu/Standbild1.png","media/Naming/LinksSchmiSchmu/Standbild2.png","blossin","left","right","right","left","complex labeling",1,1,1,1,"complex labeling_2021-11-05_12h22.36.831","child"
"221",6,"female","2021-11-05_12h22.36.831",7.321,6.955,"media/Naming/RechtsSchmiSchmu/Standbild1.png","media/Naming/RechtsSchmiSchmu/Standbild2.png","blossin","right","left","right","left","complex labeling",2,1,1,1,"complex labeling_2021-11-05_12h22.36.831","child"
"222",6,"female","2021-11-05_12h22.36.831",6.573,5.705,"media/Naming/LinksSchmiSchmu/Standbild1.png","media/Naming/LinksSchmiSchmu/Standbild2.png","blossin","left","right","left","right","complex labeling",3,1,1,1,"complex labeling_2021-11-05_12h22.36.831","child"
"223",6,"female","2021-11-05_12h22.36.831",5.457,4.373,"media/Naming/RechtsSchmuSchmi/Standbild1.png","media/Naming/RechtsSchmuSchmi/Standbild2.png","blossin","right","left","right","left","complex labeling",4,1,1,1,"complex labeling_2021-11-05_12h22.36.831","child"
"224",6,"female","2021-11-05_12h22.36.831",6.238,6.272,"media/Naming/RechtsSchmiSchmu/Standbild1.png","media/Naming/RechtsSchmiSchmu/Standbild2.png","blossin","right","left","left","left","complex labeling",5,1,0,0,"complex labeling_2021-11-05_12h22.36.831","child"
"225",6,"female","2021-11-05_12h22.36.831",6.707,5.605,"media/Naming/LinksSchmuSchmi/Standbild1.png","media/Naming/LinksSchmuSchmi/Standbild2.png","blossin","left","right","left","right","complex labeling",6,1,1,1,"complex labeling_2021-11-05_12h22.36.831","child"
"226",6,"female","2021-11-05_12h22.36.831",6.106,4.623,"media/Naming/LinksSchmuSchmi/Standbild1.png","media/Naming/LinksSchmuSchmi/Standbild2.png","blossin","left","right","left","left","complex labeling",7,0,1,0,"complex labeling_2021-11-05_12h22.36.831","child"
"227",6,"female","2021-11-05_12h22.36.831",5.989,5.987,"media/Naming/RechtsSchmuSchmi/Standbild1.png","media/Naming/RechtsSchmuSchmi/Standbild2.png","blossin","right","left","left","right","complex labeling",8,1,1,1,"complex labeling_2021-11-05_12h22.36.831","child"
"232",6,"female","2021-11-05_12h35.00.263",13.415,14.849,"media/Naming/RechtsSchmiSchmu/Standbild1.png","media/Naming/RechtsSchmiSchmu/Standbild2.png","blossin","right","left","left","right","complex labeling",1,1,1,1,"complex labeling_2021-11-05_12h35.00.263","child"
"233",6,"female","2021-11-05_12h35.00.263",8.852,5.707,"media/Naming/LinksSchmiSchmu/Standbild1.png","media/Naming/LinksSchmiSchmu/Standbild2.png","blossin","left","right","right","left","complex labeling",2,0,0,0,"complex labeling_2021-11-05_12h35.00.263","child"
"234",6,"female","2021-11-05_12h35.00.263",7.255,7.755,"media/Naming/LinksSchmuSchmi/Standbild1.png","media/Naming/LinksSchmuSchmi/Standbild2.png","blossin","left","right","right","left","complex labeling",3,1,1,1,"complex labeling_2021-11-05_12h35.00.263","child"
"235",6,"female","2021-11-05_12h35.00.263",6.606,5.605,"media/Naming/RechtsSchmiSchmu/Standbild1.png","media/Naming/RechtsSchmiSchmu/Standbild2.png","blossin","right","left","right","left","complex labeling",4,1,1,1,"complex labeling_2021-11-05_12h35.00.263","child"
"236",6,"female","2021-11-05_12h35.00.263",6.506,5.622,"media/Naming/LinksSchmuSchmi/Standbild1.png","media/Naming/LinksSchmuSchmi/Standbild2.png","blossin","left","right","right","left","complex labeling",5,0,0,0,"complex labeling_2021-11-05_12h35.00.263","child"
"237",6,"female","2021-11-05_12h35.00.263",6.972,5.638,"media/Naming/LinksSchmiSchmu/Standbild1.png","media/Naming/LinksSchmiSchmu/Standbild2.png","blossin","left","right","right","left","complex labeling",6,1,1,1,"complex labeling_2021-11-05_12h35.00.263","child"
"238",6,"female","2021-11-05_12h35.00.263",6.122,6.67,"media/Naming/RechtsSchmuSchmi/Standbild1.png","media/Naming/RechtsSchmuSchmi/Standbild2.png","blossin","right","left","right","right","complex labeling",7,1,0,0,"complex labeling_2021-11-05_12h35.00.263","child"
"239",6,"female","2021-11-05_12h35.00.263",6.338,5.523,"media/Naming/RechtsSchmuSchmi/Standbild1.png","media/Naming/RechtsSchmuSchmi/Standbild2.png","blossin","right","left","left","right","complex labeling",8,1,1,1,"complex labeling_2021-11-05_12h35.00.263","child"
"244",5,"male","2021-11-05_12h43.16.644",12.2407,7.7292,"media/Naming/RechtsSchmiSchmu/Standbild1.png","media/Naming/RechtsSchmiSchmu/Standbild2.png","blossin","right","left","right","left","complex labeling",1,1,1,1,"complex labeling_2021-11-05_12h43.16.644","child"
"245",5,"male","2021-11-05_12h43.16.644",8.2395,9.1087,"media/Naming/LinksSchmiSchmu/Standbild1.png","media/Naming/LinksSchmiSchmu/Standbild2.png","blossin","left","right","right","left","complex labeling",2,1,1,1,"complex labeling_2021-11-05_12h43.16.644","child"
"246",5,"male","2021-11-05_12h43.16.644",9.2985,6.1566,"media/Naming/RechtsSchmiSchmu/Standbild1.png","media/Naming/RechtsSchmiSchmu/Standbild2.png","blossin","right","left","left","right","complex labeling",3,1,1,1,"complex labeling_2021-11-05_12h43.16.644","child"
"247",5,"male","2021-11-05_12h43.16.644",7.4228,6.4458,"media/Naming/LinksSchmiSchmu/Standbild1.png","media/Naming/LinksSchmiSchmu/Standbild2.png","blossin","left","right","right","left","complex labeling",4,0,0,0,"complex labeling_2021-11-05_12h43.16.644","child"
"248",5,"male","2021-11-05_12h43.16.644",8.7015,6.7103,"media/Naming/RechtsSchmuSchmi/Standbild1.png","media/Naming/RechtsSchmuSchmi/Standbild2.png","blossin","right","left","left","left","complex labeling",5,1,0,0,"complex labeling_2021-11-05_12h43.16.644","child"
"249",5,"male","2021-11-05_12h43.16.644",8.2755,4.2911,"media/Naming/RechtsSchmuSchmi/Standbild1.png","media/Naming/RechtsSchmuSchmi/Standbild2.png","blossin","right","left","right","right","complex labeling",6,1,0,0,"complex labeling_2021-11-05_12h43.16.644","child"
"250",5,"male","2021-11-05_12h43.16.644",7.8111,4.8696,"media/Naming/LinksSchmuSchmi/Standbild1.png","media/Naming/LinksSchmuSchmi/Standbild2.png","blossin","left","right","right","right","complex labeling",7,1,0,0,"complex labeling_2021-11-05_12h43.16.644","child"
"251",5,"male","2021-11-05_12h43.16.644",8.1963,4.9771,"media/Naming/LinksSchmuSchmi/Standbild1.png","media/Naming/LinksSchmuSchmi/Standbild2.png","blossin","left","right","left","left","complex labeling",8,1,0,0,"complex labeling_2021-11-05_12h43.16.644","child"
"256",6,"male","2022-04-27_09h47.13.258",10.4152,7.8584,"media/Naming/LinksSchmuSchmi/Standbild1.png","media/Naming/LinksSchmuSchmi/Standbild2.png","blossin","left","right","left","right","complex labeling",1,1,1,1,"complex labeling_2022-04-27_09h47.13.258","child"
"257",6,"male","2022-04-27_09h47.13.258",9.4144,9.4044,"media/Naming/RechtsSchmiSchmu/Standbild1.png","media/Naming/RechtsSchmiSchmu/Standbild2.png","blossin","right","left","right","left","complex labeling",2,1,1,1,"complex labeling_2022-04-27_09h47.13.258","child"
"258",6,"male","2022-04-27_09h47.13.258",9.7298,6.5618,"media/Naming/RechtsSchmiSchmu/Standbild1.png","media/Naming/RechtsSchmiSchmu/Standbild2.png","blossin","right","left","right","left","complex labeling",3,0,0,0,"complex labeling_2022-04-27_09h47.13.258","child"
"259",6,"male","2022-04-27_09h47.13.258",9.3053,9.6068,"media/Naming/RechtsSchmuSchmi/Standbild1.png","media/Naming/RechtsSchmuSchmi/Standbild2.png","blossin","right","left","right","left","complex labeling",4,1,1,1,"complex labeling_2022-04-27_09h47.13.258","child"
"260",6,"male","2022-04-27_09h47.13.258",4.4825,7.0852,"media/Naming/LinksSchmiSchmu/Standbild1.png","media/Naming/LinksSchmiSchmu/Standbild2.png","blossin","left","right","left","right","complex labeling",5,1,1,1,"complex labeling_2022-04-27_09h47.13.258","child"
"261",6,"male","2022-04-27_09h47.13.258",13.3212,7.4719,"media/Naming/LinksSchmuSchmi/Standbild1.png","media/Naming/LinksSchmuSchmi/Standbild2.png","blossin","left","right","left","right","complex labeling",6,0,0,0,"complex labeling_2022-04-27_09h47.13.258","child"
"262",6,"male","2022-04-27_09h47.13.258",10.8106,4.2619,"media/Naming/LinksSchmiSchmu/Standbild1.png","media/Naming/LinksSchmiSchmu/Standbild2.png","blossin","left","right","left","right","complex labeling",7,0,0,0,"complex labeling_2022-04-27_09h47.13.258","child"
"263",6,"male","2022-04-27_09h47.13.258",9.3702,4.9824,"media/Naming/RechtsSchmuSchmi/Standbild1.png","media/Naming/RechtsSchmuSchmi/Standbild2.png","blossin","right","left","right","left","complex labeling",8,0,0,0,"complex labeling_2022-04-27_09h47.13.258","child"
"268",6,"female","2021-06-09_18h10.41.841",23.754,21.443,"media/Indexical/LinksSchmuSchmi/Standbild1.png","media/Indexical/LinksSchmuSchmi/Standbild2.png","zoom","left","right","left","right","pseudo-word demonstrative",1,1,0,0,"pseudo-word demonstrative_2021-06-09_18h10.41.841","child"
"269",6,"female","2021-06-09_18h10.41.841",27.956,7.617,"media/Indexical/RechtsSchmuSchmi/Standbild1.png","media/Indexical/RechtsSchmuSchmi/Standbild2.png","zoom","right","left","left","right","pseudo-word demonstrative",2,0,1,0,"pseudo-word demonstrative_2021-06-09_18h10.41.841","child"
"270",6,"female","2021-06-09_18h10.41.841",21.69,11.184,"media/Indexical/LinksSchmuSchmi/Standbild1.png","media/Indexical/LinksSchmuSchmi/Standbild2.png","zoom","left","right","right","left","pseudo-word demonstrative",3,1,0,0,"pseudo-word demonstrative_2021-06-09_18h10.41.841","child"
"271",6,"female","2021-06-09_18h10.41.841",9.124,38.275,"media/Indexical/RechtsSchmiSchmu/Standbild1.png","media/Indexical/RechtsSchmiSchmu/Standbild2.png","zoom","right","left","left","right","pseudo-word demonstrative",4,0,1,0,"pseudo-word demonstrative_2021-06-09_18h10.41.841","child"
"272",6,"female","2021-06-09_18h10.41.841",7.814,14.306,"media/Indexical/LinksSchmiSchmu/Standbild1.png","media/Indexical/LinksSchmiSchmu/Standbild2.png","zoom","left","right","left","right","pseudo-word demonstrative",5,1,0,0,"pseudo-word demonstrative_2021-06-09_18h10.41.841","child"
"273",6,"female","2021-06-09_18h10.41.841",10.588,7.096,"media/Indexical/LinksSchmiSchmu/Standbild1.png","media/Indexical/LinksSchmiSchmu/Standbild2.png","zoom","left","right","left","right","pseudo-word demonstrative",6,0,1,0,"pseudo-word demonstrative_2021-06-09_18h10.41.841","child"
"274",6,"female","2021-06-09_18h10.41.841",5.716,9.966,"media/Indexical/RechtsSchmiSchmu/Standbild1.png","media/Indexical/RechtsSchmiSchmu/Standbild2.png","zoom","right","left","right","left","pseudo-word demonstrative",7,0,1,0,"pseudo-word demonstrative_2021-06-09_18h10.41.841","child"
"275",6,"female","2021-06-09_18h10.41.841",24.962,7.612,"media/Indexical/RechtsSchmuSchmi/Standbild1.png","media/Indexical/RechtsSchmuSchmi/Standbild2.png","zoom","right","left","right","left","pseudo-word demonstrative",8,0,1,0,"pseudo-word demonstrative_2021-06-09_18h10.41.841","child"
"280",5,"female","2021-09-24_09h59.17.217",16.897,8.335,"media/Indexical/LinksSchmuSchmi/Standbild1.png","media/Indexical/LinksSchmuSchmi/Standbild2.png","blossin","left","right","right","left","pseudo-word demonstrative",1,1,0,0,"pseudo-word demonstrative_2021-09-24_09h59.17.217","child"
"281",5,"female","2021-09-24_09h59.17.217",7.9203,7.2082,"media/Indexical/RechtsSchmuSchmi/Standbild1.png","media/Indexical/RechtsSchmuSchmi/Standbild2.png","blossin","right","left","left","right","pseudo-word demonstrative",2,0,1,0,"pseudo-word demonstrative_2021-09-24_09h59.17.217","child"
"282",5,"female","2021-09-24_09h59.17.217",7.0437,9.199,"media/Indexical/RechtsSchmiSchmu/Standbild1.png","media/Indexical/RechtsSchmiSchmu/Standbild2.png","blossin","right","left","left","right","pseudo-word demonstrative",3,1,0,0,"pseudo-word demonstrative_2021-09-24_09h59.17.217","child"
"283",5,"female","2021-09-24_09h59.17.217",5.676,6.541,"media/Indexical/RechtsSchmiSchmu/Standbild1.png","media/Indexical/RechtsSchmiSchmu/Standbild2.png","blossin","right","left","left","right","pseudo-word demonstrative",4,0,1,0,"pseudo-word demonstrative_2021-09-24_09h59.17.217","child"
"284",5,"female","2021-09-24_09h59.17.217",9.2443,6.6258,"media/Indexical/LinksSchmiSchmu/Standbild1.png","media/Indexical/LinksSchmiSchmu/Standbild2.png","blossin","left","right","right","left","pseudo-word demonstrative",5,0,1,0,"pseudo-word demonstrative_2021-09-24_09h59.17.217","child"
"285",5,"female","2021-09-24_09h59.17.217",8.4657,7.8207,"media/Indexical/RechtsSchmuSchmi/Standbild1.png","media/Indexical/RechtsSchmuSchmi/Standbild2.png","blossin","right","left","left","right","pseudo-word demonstrative",6,1,0,0,"pseudo-word demonstrative_2021-09-24_09h59.17.217","child"
"286",5,"female","2021-09-24_09h59.17.217",5.2369,7.3872,"media/Indexical/LinksSchmiSchmu/Standbild1.png","media/Indexical/LinksSchmiSchmu/Standbild2.png","blossin","left","right","right","left","pseudo-word demonstrative",7,1,0,0,"pseudo-word demonstrative_2021-09-24_09h59.17.217","child"
"287",5,"female","2021-09-24_09h59.17.217",7.4643,7.4343,"media/Indexical/LinksSchmuSchmi/Standbild1.png","media/Indexical/LinksSchmuSchmi/Standbild2.png","blossin","left","right","right","left","pseudo-word demonstrative",8,0,1,0,"pseudo-word demonstrative_2021-09-24_09h59.17.217","child"
"292",6,"female","2021-09-24_10h59.08.405",23.365,14.0217,"media/Indexical/RechtsSchmuSchmi/Standbild1.png","media/Indexical/RechtsSchmuSchmi/Standbild2.png","blossin","right","left","right","left","pseudo-word demonstrative",1,0,1,0,"pseudo-word demonstrative_2021-09-24_10h59.08.405","child"
"293",6,"female","2021-09-24_10h59.08.405",12.7338,10.1463,"media/Indexical/RechtsSchmiSchmu/Standbild1.png","media/Indexical/RechtsSchmiSchmu/Standbild2.png","blossin","right","left","left","left","pseudo-word demonstrative",2,0,0,0,"pseudo-word demonstrative_2021-09-24_10h59.08.405","child"
"294",6,"female","2021-09-24_10h59.08.405",13.2024,14.124,"media/Indexical/RechtsSchmuSchmi/Standbild1.png","media/Indexical/RechtsSchmuSchmi/Standbild2.png","blossin","right","left","left","right","pseudo-word demonstrative",3,0,1,0,"pseudo-word demonstrative_2021-09-24_10h59.08.405","child"
"295",6,"female","2021-09-24_10h59.08.405",10.2546,6.9471,"media/Indexical/LinksSchmuSchmi/Standbild1.png","media/Indexical/LinksSchmuSchmi/Standbild2.png","blossin","left","right","left","right","pseudo-word demonstrative",4,1,0,0,"pseudo-word demonstrative_2021-09-24_10h59.08.405","child"
"296",6,"female","2021-09-24_10h59.08.405",7.5205,10.6993,"media/Indexical/RechtsSchmiSchmu/Standbild1.png","media/Indexical/RechtsSchmiSchmu/Standbild2.png","blossin","right","left","left","right","pseudo-word demonstrative",5,1,0,0,"pseudo-word demonstrative_2021-09-24_10h59.08.405","child"
"297",6,"female","2021-09-24_10h59.08.405",9.2325,8.7576,"media/Indexical/LinksSchmuSchmi/Standbild1.png","media/Indexical/LinksSchmuSchmi/Standbild2.png","blossin","left","right","right","left","pseudo-word demonstrative",6,1,0,0,"pseudo-word demonstrative_2021-09-24_10h59.08.405","child"
"298",6,"female","2021-09-24_10h59.08.405",6.8045,9.8887,"media/Indexical/LinksSchmiSchmu/Standbild1.png","media/Indexical/LinksSchmiSchmu/Standbild2.png","blossin","left","right","left","right","pseudo-word demonstrative",7,1,0,0,"pseudo-word demonstrative_2021-09-24_10h59.08.405","child"
"299",6,"female","2021-09-24_10h59.08.405",9.0626,6.6962,"media/Indexical/LinksSchmiSchmu/Standbild1.png","media/Indexical/LinksSchmiSchmu/Standbild2.png","blossin","left","right","left","right","pseudo-word demonstrative",8,0,1,0,"pseudo-word demonstrative_2021-09-24_10h59.08.405","child"
"304",5,"male","2021-09-24_11h18.59.675",25.7906,13.9206,"media/Indexical/LinksSchmuSchmi/Standbild1.png","media/Indexical/LinksSchmuSchmi/Standbild2.png","blossin","left","right","left","left","pseudo-word demonstrative",1,1,1,1,"pseudo-word demonstrative_2021-09-24_11h18.59.675","child"
"305",5,"male","2021-09-24_11h18.59.675",7.2883,8.6845,"media/Indexical/RechtsSchmiSchmu/Standbild1.png","media/Indexical/RechtsSchmiSchmu/Standbild2.png","blossin","right","left","left","left","pseudo-word demonstrative",2,1,1,1,"pseudo-word demonstrative_2021-09-24_11h18.59.675","child"
"306",5,"male","2021-09-24_11h18.59.675",10.3347,7.2977,"media/Indexical/LinksSchmuSchmi/Standbild1.png","media/Indexical/LinksSchmuSchmi/Standbild2.png","blossin","left","right","left","right","pseudo-word demonstrative",3,0,1,0,"pseudo-word demonstrative_2021-09-24_11h18.59.675","child"
"307",5,"male","2021-09-24_11h18.59.675",8.5704,9.2278,"media/Indexical/LinksSchmiSchmu/Standbild1.png","media/Indexical/LinksSchmiSchmu/Standbild2.png","blossin","left","right","right","right","pseudo-word demonstrative",4,1,1,1,"pseudo-word demonstrative_2021-09-24_11h18.59.675","child"
"308",5,"male","2021-09-24_11h18.59.675",8.6873,8.876,"media/Indexical/RechtsSchmuSchmi/Standbild1.png","media/Indexical/RechtsSchmuSchmi/Standbild2.png","blossin","right","left","left","left","pseudo-word demonstrative",5,1,1,1,"pseudo-word demonstrative_2021-09-24_11h18.59.675","child"
"309",5,"male","2021-09-24_11h18.59.675",9.1558,8.4009,"media/Indexical/LinksSchmiSchmu/Standbild1.png","media/Indexical/LinksSchmiSchmu/Standbild2.png","blossin","left","right","left","left","pseudo-word demonstrative",6,1,1,1,"pseudo-word demonstrative_2021-09-24_11h18.59.675","child"
"310",5,"male","2021-09-24_11h18.59.675",8.515,7.0928,"media/Indexical/RechtsSchmuSchmi/Standbild1.png","media/Indexical/RechtsSchmuSchmi/Standbild2.png","blossin","right","left","right","right","pseudo-word demonstrative",7,1,1,1,"pseudo-word demonstrative_2021-09-24_11h18.59.675","child"
"311",5,"male","2021-09-24_11h18.59.675",8.7196,7.1144,"media/Indexical/RechtsSchmiSchmu/Standbild1.png","media/Indexical/RechtsSchmiSchmu/Standbild2.png","blossin","right","left","right","right","pseudo-word demonstrative",8,1,1,1,"pseudo-word demonstrative_2021-09-24_11h18.59.675","child"
"316",6,"female","2021-09-24_14h00.25.918",21.8875,10.1511,"media/Indexical/RechtsSchmuSchmi/Standbild1.png","media/Indexical/RechtsSchmuSchmi/Standbild2.png","blossin","right","left","left","left","pseudo-word demonstrative",1,0,0,0,"pseudo-word demonstrative_2021-09-24_14h00.25.918","child"
"317",6,"female","2021-09-24_14h00.25.918",11.8073,9.3657,"media/Indexical/RechtsSchmiSchmu/Standbild1.png","media/Indexical/RechtsSchmiSchmu/Standbild2.png","blossin","right","left","left","left","pseudo-word demonstrative",2,1,1,1,"pseudo-word demonstrative_2021-09-24_14h00.25.918","child"
"318",6,"female","2021-09-24_14h00.25.918",7.7395,7.6517,"media/Indexical/RechtsSchmuSchmi/Standbild1.png","media/Indexical/RechtsSchmuSchmi/Standbild2.png","blossin","right","left","right","right","pseudo-word demonstrative",3,0,0,0,"pseudo-word demonstrative_2021-09-24_14h00.25.918","child"
"319",6,"female","2021-09-24_14h00.25.918",6.9417,5.6352,"media/Indexical/LinksSchmuSchmi/Standbild1.png","media/Indexical/LinksSchmuSchmi/Standbild2.png","blossin","left","right","right","right","pseudo-word demonstrative",4,0,0,0,"pseudo-word demonstrative_2021-09-24_14h00.25.918","child"
"320",6,"female","2021-09-24_14h00.25.918",6.5518,6.5541,"media/Indexical/LinksSchmiSchmu/Standbild1.png","media/Indexical/LinksSchmiSchmu/Standbild2.png","blossin","left","right","left","left","pseudo-word demonstrative",5,0,0,0,"pseudo-word demonstrative_2021-09-24_14h00.25.918","child"
"321",6,"female","2021-09-24_14h00.25.918",11.3631,7.1703,"media/Indexical/LinksSchmuSchmi/Standbild1.png","media/Indexical/LinksSchmuSchmi/Standbild2.png","blossin","left","right","right","right","pseudo-word demonstrative",6,1,1,1,"pseudo-word demonstrative_2021-09-24_14h00.25.918","child"
"322",6,"female","2021-09-24_14h00.25.918",10.6467,7.0727,"media/Indexical/LinksSchmiSchmu/Standbild1.png","media/Indexical/LinksSchmiSchmu/Standbild2.png","blossin","left","right","left","left","pseudo-word demonstrative",7,1,1,1,"pseudo-word demonstrative_2021-09-24_14h00.25.918","child"
"323",6,"female","2021-09-24_14h00.25.918",17.2558,8.6343,"media/Indexical/RechtsSchmiSchmu/Standbild1.png","media/Indexical/RechtsSchmiSchmu/Standbild2.png","blossin","right","left","right","right","pseudo-word demonstrative",8,1,1,1,"pseudo-word demonstrative_2021-09-24_14h00.25.918","child"
"328",5,"male","2021-10-25_10h23.22.073",14.3024,9.1678,"media/Indexical/RechtsSchmuSchmi/Standbild1.png","media/Indexical/RechtsSchmuSchmi/Standbild2.png","blossin","right","left","left","right","pseudo-word demonstrative",1,1,0,0,"pseudo-word demonstrative_2021-10-25_10h23.22.073","child"
"329",5,"male","2021-10-25_10h23.22.073",10.5011,10.3201,"media/Indexical/LinksSchmuSchmi/Standbild1.png","media/Indexical/LinksSchmuSchmi/Standbild2.png","blossin","left","right","left","right","pseudo-word demonstrative",2,0,1,0,"pseudo-word demonstrative_2021-10-25_10h23.22.073","child"
"330",5,"male","2021-10-25_10h23.22.073",10.989,9.953,"media/Indexical/LinksSchmuSchmi/Standbild1.png","media/Indexical/LinksSchmuSchmi/Standbild2.png","blossin","left","right","left","right","pseudo-word demonstrative",3,1,0,0,"pseudo-word demonstrative_2021-10-25_10h23.22.073","child"
"331",5,"male","2021-10-25_10h23.22.073",9.0293,10.7021,"media/Indexical/LinksSchmiSchmu/Standbild1.png","media/Indexical/LinksSchmiSchmu/Standbild2.png","blossin","left","right","right","left","pseudo-word demonstrative",4,1,0,0,"pseudo-word demonstrative_2021-10-25_10h23.22.073","child"
"332",5,"male","2021-10-25_10h23.22.073",8.1403,7.9557,"media/Indexical/LinksSchmiSchmu/Standbild1.png","media/Indexical/LinksSchmiSchmu/Standbild2.png","blossin","left","right","left","right","pseudo-word demonstrative",5,1,0,0,"pseudo-word demonstrative_2021-10-25_10h23.22.073","child"
"333",5,"male","2021-10-25_10h23.22.073",6.524,10.221,"media/Indexical/RechtsSchmiSchmu/Standbild1.png","media/Indexical/RechtsSchmiSchmu/Standbild2.png","blossin","right","left","right","left","pseudo-word demonstrative",6,0,1,0,"pseudo-word demonstrative_2021-10-25_10h23.22.073","child"
"334",5,"male","2021-10-25_10h23.22.073",11.3269,10.0185,"media/Indexical/RechtsSchmuSchmi/Standbild1.png","media/Indexical/RechtsSchmuSchmi/Standbild2.png","blossin","right","left","left","right","pseudo-word demonstrative",7,0,1,0,"pseudo-word demonstrative_2021-10-25_10h23.22.073","child"
"335",5,"male","2021-10-25_10h23.22.073",9.788,9.6174,"media/Indexical/RechtsSchmiSchmu/Standbild1.png","media/Indexical/RechtsSchmiSchmu/Standbild2.png","blossin","right","left","right","left","pseudo-word demonstrative",8,1,0,0,"pseudo-word demonstrative_2021-10-25_10h23.22.073","child"
"340",5,"female","2021-10-25_13h23.03.647",12.0863,7.5734,"media/Indexical/LinksSchmuSchmi/Standbild1.png","media/Indexical/LinksSchmuSchmi/Standbild2.png","blossin","left","right","right","left","pseudo-word demonstrative",1,1,0,0,"pseudo-word demonstrative_2021-10-25_13h23.03.647","child"
"341",5,"female","2021-10-25_13h23.03.647",6.3024,6.036,"media/Indexical/LinksSchmiSchmu/Standbild1.png","media/Indexical/LinksSchmiSchmu/Standbild2.png","blossin","left","right","right","left","pseudo-word demonstrative",2,0,1,0,"pseudo-word demonstrative_2021-10-25_13h23.03.647","child"
"342",5,"female","2021-10-25_13h23.03.647",7.5746,10.5867,"media/Indexical/LinksSchmiSchmu/Standbild1.png","media/Indexical/LinksSchmiSchmu/Standbild2.png","blossin","left","right","right","left","pseudo-word demonstrative",3,1,0,0,"pseudo-word demonstrative_2021-10-25_13h23.03.647","child"
"343",5,"female","2021-10-25_13h23.03.647",9.6189,9.6977,"media/Indexical/RechtsSchmiSchmu/Standbild1.png","media/Indexical/RechtsSchmiSchmu/Standbild2.png","blossin","right","left","left","right","pseudo-word demonstrative",4,1,0,0,"pseudo-word demonstrative_2021-10-25_13h23.03.647","child"
"344",5,"female","2021-10-25_13h23.03.647",8.3468,6.6929,"media/Indexical/RechtsSchmiSchmu/Standbild1.png","media/Indexical/RechtsSchmiSchmu/Standbild2.png","blossin","right","left","left","right","pseudo-word demonstrative",5,0,1,0,"pseudo-word demonstrative_2021-10-25_13h23.03.647","child"
"345",5,"female","2021-10-25_13h23.03.647",10.5737,7.4008,"media/Indexical/RechtsSchmuSchmi/Standbild1.png","media/Indexical/RechtsSchmuSchmi/Standbild2.png","blossin","right","left","left","right","pseudo-word demonstrative",6,0,1,0,"pseudo-word demonstrative_2021-10-25_13h23.03.647","child"
"346",5,"female","2021-10-25_13h23.03.647",6.8597,9.0767,"media/Indexical/LinksSchmuSchmi/Standbild1.png","media/Indexical/LinksSchmuSchmi/Standbild2.png","blossin","left","right","right","left","pseudo-word demonstrative",7,0,1,0,"pseudo-word demonstrative_2021-10-25_13h23.03.647","child"
"347",5,"female","2021-10-25_13h23.03.647",8.2772,6.0431,"media/Indexical/RechtsSchmuSchmi/Standbild1.png","media/Indexical/RechtsSchmuSchmi/Standbild2.png","blossin","right","left","left","right","pseudo-word demonstrative",8,1,0,0,"pseudo-word demonstrative_2021-10-25_13h23.03.647","child"
"352",5,"male","2021-10-25_14h08.47.666",12.1381,9.0029,"media/Indexical/RechtsSchmuSchmi/Standbild1.png","media/Indexical/RechtsSchmuSchmi/Standbild2.png","blossin","right","left","left","left","pseudo-word demonstrative",1,0,0,0,"pseudo-word demonstrative_2021-10-25_14h08.47.666","child"
"353",5,"male","2021-10-25_14h08.47.666",9.2324,13.6646,"media/Indexical/LinksSchmuSchmi/Standbild1.png","media/Indexical/LinksSchmuSchmi/Standbild2.png","blossin","left","right","right","left","pseudo-word demonstrative",2,1,0,0,"pseudo-word demonstrative_2021-10-25_14h08.47.666","child"
"354",5,"male","2021-10-25_14h08.47.666",8.4886,14.4416,"media/Indexical/LinksSchmiSchmu/Standbild1.png","media/Indexical/LinksSchmiSchmu/Standbild2.png","blossin","left","right","right","right","pseudo-word demonstrative",3,1,1,1,"pseudo-word demonstrative_2021-10-25_14h08.47.666","child"
"355",5,"male","2021-10-25_14h08.47.666",9.5084,8.4339,"media/Indexical/RechtsSchmiSchmu/Standbild1.png","media/Indexical/RechtsSchmiSchmu/Standbild2.png","blossin","right","left","right","right","pseudo-word demonstrative",4,0,0,0,"pseudo-word demonstrative_2021-10-25_14h08.47.666","child"
"356",5,"male","2021-10-25_14h08.47.666",6.568,9.9665,"media/Indexical/LinksSchmiSchmu/Standbild1.png","media/Indexical/LinksSchmiSchmu/Standbild2.png","blossin","left","right","right","right","pseudo-word demonstrative",5,0,0,0,"pseudo-word demonstrative_2021-10-25_14h08.47.666","child"
"357",5,"male","2021-10-25_14h08.47.666",13.1035,8.7746,"media/Indexical/LinksSchmuSchmi/Standbild1.png","media/Indexical/LinksSchmuSchmi/Standbild2.png","blossin","left","right","right","right","pseudo-word demonstrative",6,0,0,0,"pseudo-word demonstrative_2021-10-25_14h08.47.666","child"
"358",5,"male","2021-10-25_14h08.47.666",8.6459,8.5001,"media/Indexical/RechtsSchmiSchmu/Standbild1.png","media/Indexical/RechtsSchmiSchmu/Standbild2.png","blossin","right","left","right","left","pseudo-word demonstrative",7,1,0,0,"pseudo-word demonstrative_2021-10-25_14h08.47.666","child"
"359",5,"male","2021-10-25_14h08.47.666",7.432,7.146,"media/Indexical/RechtsSchmuSchmi/Standbild1.png","media/Indexical/RechtsSchmuSchmi/Standbild2.png","blossin","right","left","left","right","pseudo-word demonstrative",8,1,0,0,"pseudo-word demonstrative_2021-10-25_14h08.47.666","child"
"364",5,"female","2021-10-25_14h14.19.897",16.3151,15.8891,"media/Indexical/RechtsSchmuSchmi/Standbild1.png","media/Indexical/RechtsSchmuSchmi/Standbild2.png","blossin","right","left","right","right","pseudo-word demonstrative",1,0,0,0,"pseudo-word demonstrative_2021-10-25_14h14.19.897","child"
"365",5,"female","2021-10-25_14h14.19.897",7.9789,9.683,"media/Indexical/LinksSchmiSchmu/Standbild1.png","media/Indexical/LinksSchmiSchmu/Standbild2.png","blossin","left","right","left","left","pseudo-word demonstrative",2,1,1,1,"pseudo-word demonstrative_2021-10-25_14h14.19.897","child"
"366",5,"female","2021-10-25_14h14.19.897",9.009,11.382,"media/Indexical/RechtsSchmuSchmi/Standbild1.png","media/Indexical/RechtsSchmuSchmi/Standbild2.png","blossin","right","left","right","left","pseudo-word demonstrative",3,1,0,0,"pseudo-word demonstrative_2021-10-25_14h14.19.897","child"
"367",5,"female","2021-10-25_14h14.19.897",11.5078,28.0813,"media/Indexical/LinksSchmiSchmu/Standbild1.png","media/Indexical/LinksSchmiSchmu/Standbild2.png","blossin","left","right","right","left","pseudo-word demonstrative",4,1,0,0,"pseudo-word demonstrative_2021-10-25_14h14.19.897","child"
"368",5,"female","2021-10-25_14h14.19.897",7.3868,9.0569,"media/Indexical/RechtsSchmiSchmu/Standbild1.png","media/Indexical/RechtsSchmiSchmu/Standbild2.png","blossin","right","left","right","left","pseudo-word demonstrative",5,1,0,0,"pseudo-word demonstrative_2021-10-25_14h14.19.897","child"
"369",5,"female","2021-10-25_14h14.19.897",6.9438,9.0929,"media/Indexical/LinksSchmuSchmi/Standbild1.png","media/Indexical/LinksSchmuSchmi/Standbild2.png","blossin","left","right","left","right","pseudo-word demonstrative",6,1,0,0,"pseudo-word demonstrative_2021-10-25_14h14.19.897","child"
"370",5,"female","2021-10-25_14h14.19.897",7.5823,7.0809,"media/Indexical/LinksSchmuSchmi/Standbild1.png","media/Indexical/LinksSchmuSchmi/Standbild2.png","blossin","left","right","left","right","pseudo-word demonstrative",7,0,1,0,"pseudo-word demonstrative_2021-10-25_14h14.19.897","child"
"371",5,"female","2021-10-25_14h14.19.897",9.7414,7.3699,"media/Indexical/RechtsSchmiSchmu/Standbild1.png","media/Indexical/RechtsSchmiSchmu/Standbild2.png","blossin","right","left","right","left","pseudo-word demonstrative",8,0,1,0,"pseudo-word demonstrative_2021-10-25_14h14.19.897","child"
"376",5,"male","2021-10-26_12h54.46.216",12.263,9.5854,"media/Indexical/RechtsSchmiSchmu/Standbild1.png","media/Indexical/RechtsSchmiSchmu/Standbild2.png","blossin","right","left","right","left","pseudo-word demonstrative",1,1,0,0,"pseudo-word demonstrative_2021-10-26_12h54.46.216","child"
"377",5,"male","2021-10-26_12h54.46.216",9.4327,10.8651,"media/Indexical/RechtsSchmiSchmu/Standbild1.png","media/Indexical/RechtsSchmiSchmu/Standbild2.png","blossin","right","left","right","right","pseudo-word demonstrative",2,0,0,0,"pseudo-word demonstrative_2021-10-26_12h54.46.216","child"
"378",5,"male","2021-10-26_12h54.46.216",8.5365,6.6223,"media/Indexical/RechtsSchmuSchmi/Standbild1.png","media/Indexical/RechtsSchmuSchmi/Standbild2.png","blossin","right","left","right","left","pseudo-word demonstrative",3,0,1,0,"pseudo-word demonstrative_2021-10-26_12h54.46.216","child"
"379",5,"male","2021-10-26_12h54.46.216",9.4889,8.9858,"media/Indexical/LinksSchmiSchmu/Standbild1.png","media/Indexical/LinksSchmiSchmu/Standbild2.png","blossin","left","right","left","right","pseudo-word demonstrative",4,0,1,0,"pseudo-word demonstrative_2021-10-26_12h54.46.216","child"
"380",5,"male","2021-10-26_12h54.46.216",7.2428,8.5383,"media/Indexical/LinksSchmiSchmu/Standbild1.png","media/Indexical/LinksSchmiSchmu/Standbild2.png","blossin","left","right","left","right","pseudo-word demonstrative",5,1,0,0,"pseudo-word demonstrative_2021-10-26_12h54.46.216","child"
"381",5,"male","2021-10-26_12h54.46.216",6.7517,8.8114,"media/Indexical/LinksSchmuSchmi/Standbild1.png","media/Indexical/LinksSchmuSchmi/Standbild2.png","blossin","left","right","left","right","pseudo-word demonstrative",6,1,0,0,"pseudo-word demonstrative_2021-10-26_12h54.46.216","child"
"382",5,"male","2021-10-26_12h54.46.216",10.2047,9.0814,"media/Indexical/LinksSchmuSchmi/Standbild1.png","media/Indexical/LinksSchmuSchmi/Standbild2.png","blossin","left","right","left","right","pseudo-word demonstrative",7,0,1,0,"pseudo-word demonstrative_2021-10-26_12h54.46.216","child"
"383",5,"male","2021-10-26_12h54.46.216",6.4489,7.7562,"media/Indexical/RechtsSchmuSchmi/Standbild1.png","media/Indexical/RechtsSchmuSchmi/Standbild2.png","blossin","right","left","right","left","pseudo-word demonstrative",8,1,0,0,"pseudo-word demonstrative_2021-10-26_12h54.46.216","child"
"388",6,"female","2021-10-29_10h18.23.668",14.2315,7.6632,"media/Indexical/LinksSchmuSchmi/Standbild1.png","media/Indexical/LinksSchmuSchmi/Standbild2.png","blossin","left","right","right","left","pseudo-word demonstrative",1,0,1,0,"pseudo-word demonstrative_2021-10-29_10h18.23.668","child"
"389",6,"female","2021-10-29_10h18.23.668",9.1683,7.5056,"media/Indexical/LinksSchmiSchmu/Standbild1.png","media/Indexical/LinksSchmiSchmu/Standbild2.png","blossin","left","right","left","right","pseudo-word demonstrative",2,0,1,0,"pseudo-word demonstrative_2021-10-29_10h18.23.668","child"
"390",6,"female","2021-10-29_10h18.23.668",6.5165,10.6489,"media/Indexical/RechtsSchmiSchmu/Standbild1.png","media/Indexical/RechtsSchmiSchmu/Standbild2.png","blossin","right","left","left","right","pseudo-word demonstrative",3,1,0,0,"pseudo-word demonstrative_2021-10-29_10h18.23.668","child"
"391",6,"female","2021-10-29_10h18.23.668",6.8852,6.3358,"media/Indexical/LinksSchmiSchmu/Standbild1.png","media/Indexical/LinksSchmiSchmu/Standbild2.png","blossin","left","right","right","left","pseudo-word demonstrative",4,0,1,0,"pseudo-word demonstrative_2021-10-29_10h18.23.668","child"
"392",6,"female","2021-10-29_10h18.23.668",5.7243,7.2544,"media/Indexical/LinksSchmuSchmi/Standbild1.png","media/Indexical/LinksSchmuSchmi/Standbild2.png","blossin","left","right","left","right","pseudo-word demonstrative",5,0,1,0,"pseudo-word demonstrative_2021-10-29_10h18.23.668","child"
"393",6,"female","2021-10-29_10h18.23.668",7.2456,6.788,"media/Indexical/RechtsSchmuSchmi/Standbild1.png","media/Indexical/RechtsSchmuSchmi/Standbild2.png","blossin","right","left","right","left","pseudo-word demonstrative",6,0,1,0,"pseudo-word demonstrative_2021-10-29_10h18.23.668","child"
"394",6,"female","2021-10-29_10h18.23.668",5.7403,6.7412,"media/Indexical/RechtsSchmiSchmu/Standbild1.png","media/Indexical/RechtsSchmiSchmu/Standbild2.png","blossin","right","left","right","left","pseudo-word demonstrative",7,1,0,0,"pseudo-word demonstrative_2021-10-29_10h18.23.668","child"
"395",6,"female","2021-10-29_10h18.23.668",8.1576,7.2849,"media/Indexical/RechtsSchmuSchmi/Standbild1.png","media/Indexical/RechtsSchmuSchmi/Standbild2.png","blossin","right","left","left","right","pseudo-word demonstrative",8,0,1,0,"pseudo-word demonstrative_2021-10-29_10h18.23.668","child"
"400",5,"female","2021-10-29_10h29.45.054",6.4219,8.9834,"media/Indexical/LinksSchmuSchmi/Standbild1.png","media/Indexical/LinksSchmuSchmi/Standbild2.png","blossin","left","right","right","left","pseudo-word demonstrative",1,1,0,0,"pseudo-word demonstrative_2021-10-29_10h29.45.054","child"
"401",5,"female","2021-10-29_10h29.45.054",4.8393,6.0229,"media/Indexical/RechtsSchmiSchmu/Standbild1.png","media/Indexical/RechtsSchmiSchmu/Standbild2.png","blossin","right","left","right","left","pseudo-word demonstrative",2,0,1,0,"pseudo-word demonstrative_2021-10-29_10h29.45.054","child"
"402",5,"female","2021-10-29_10h29.45.054",5.8582,5.11,"media/Indexical/LinksSchmiSchmu/Standbild1.png","media/Indexical/LinksSchmiSchmu/Standbild2.png","blossin","left","right","right","left","pseudo-word demonstrative",3,0,1,0,"pseudo-word demonstrative_2021-10-29_10h29.45.054","child"
"403",5,"female","2021-10-29_10h29.45.054",6.1702,5.1352,"media/Indexical/RechtsSchmuSchmi/Standbild1.png","media/Indexical/RechtsSchmuSchmi/Standbild2.png","blossin","right","left","left","right","pseudo-word demonstrative",4,1,0,0,"pseudo-word demonstrative_2021-10-29_10h29.45.054","child"
"404",5,"female","2021-10-29_10h29.45.054",5.6615,4.5251,"media/Indexical/RechtsSchmiSchmu/Standbild1.png","media/Indexical/RechtsSchmiSchmu/Standbild2.png","blossin","right","left","left","right","pseudo-word demonstrative",5,0,1,0,"pseudo-word demonstrative_2021-10-29_10h29.45.054","child"
"405",5,"female","2021-10-29_10h29.45.054",5.8527,5.9487,"media/Indexical/LinksSchmiSchmu/Standbild1.png","media/Indexical/LinksSchmiSchmu/Standbild2.png","blossin","left","right","left","right","pseudo-word demonstrative",6,0,1,0,"pseudo-word demonstrative_2021-10-29_10h29.45.054","child"
"406",5,"female","2021-10-29_10h29.45.054",4.9368,5.4287,"media/Indexical/LinksSchmuSchmi/Standbild1.png","media/Indexical/LinksSchmuSchmi/Standbild2.png","blossin","left","right","right","left","pseudo-word demonstrative",7,0,1,0,"pseudo-word demonstrative_2021-10-29_10h29.45.054","child"
"407",5,"female","2021-10-29_10h29.45.054",8.2799,4.7184,"media/Indexical/RechtsSchmuSchmi/Standbild1.png","media/Indexical/RechtsSchmuSchmi/Standbild2.png","blossin","right","left","right","left","pseudo-word demonstrative",8,1,0,0,"pseudo-word demonstrative_2021-10-29_10h29.45.054","child"
"412",6,"female","2021-10-29_12h39.31.250",12.2279,13.0433,"media/Indexical/RechtsSchmiSchmu/Standbild1.png","media/Indexical/RechtsSchmiSchmu/Standbild2.png","blossin","right","left","left","right","pseudo-word demonstrative",1,0,1,0,"pseudo-word demonstrative_2021-10-29_12h39.31.250","child"
"413",6,"female","2021-10-29_12h39.31.250",13.7029,9.1961,"media/Indexical/LinksSchmuSchmi/Standbild1.png","media/Indexical/LinksSchmuSchmi/Standbild2.png","blossin","left","right","right","right","pseudo-word demonstrative",2,0,0,0,"pseudo-word demonstrative_2021-10-29_12h39.31.250","child"
"414",6,"female","2021-10-29_12h39.31.250",7.7558,7.7144,"media/Indexical/RechtsSchmiSchmu/Standbild1.png","media/Indexical/RechtsSchmiSchmu/Standbild2.png","blossin","right","left","right","right","pseudo-word demonstrative",3,0,0,0,"pseudo-word demonstrative_2021-10-29_12h39.31.250","child"
"415",6,"female","2021-10-29_12h39.31.250",6.34,6.9747,"media/Indexical/LinksSchmuSchmi/Standbild1.png","media/Indexical/LinksSchmuSchmi/Standbild2.png","blossin","left","right","left","left","pseudo-word demonstrative",4,0,0,0,"pseudo-word demonstrative_2021-10-29_12h39.31.250","child"
"416",6,"female","2021-10-29_12h39.31.250",6.6256,7.3306,"media/Indexical/LinksSchmiSchmu/Standbild1.png","media/Indexical/LinksSchmiSchmu/Standbild2.png","blossin","left","right","left","left","pseudo-word demonstrative",5,0,0,0,"pseudo-word demonstrative_2021-10-29_12h39.31.250","child"
"417",6,"female","2021-10-29_12h39.31.250",5.6159,8.7443,"media/Indexical/LinksSchmiSchmu/Standbild1.png","media/Indexical/LinksSchmiSchmu/Standbild2.png","blossin","left","right","right","right","pseudo-word demonstrative",6,0,0,0,"pseudo-word demonstrative_2021-10-29_12h39.31.250","child"
"418",6,"female","2021-10-29_12h39.31.250",6.1833,6.5068,"media/Indexical/RechtsSchmuSchmi/Standbild1.png","media/Indexical/RechtsSchmuSchmi/Standbild2.png","blossin","right","left","left","left","pseudo-word demonstrative",7,0,0,0,"pseudo-word demonstrative_2021-10-29_12h39.31.250","child"
"419",6,"female","2021-10-29_12h39.31.250",6.2771,5.9735,"media/Indexical/RechtsSchmuSchmi/Standbild1.png","media/Indexical/RechtsSchmuSchmi/Standbild2.png","blossin","right","left","right","right","pseudo-word demonstrative",8,0,0,0,"pseudo-word demonstrative_2021-10-29_12h39.31.250","child"
"424",10,"female","2021-11-04_09h40.18.796",24.4407,24.3902,"media/Indexical/LinksSchmiSchmu/Standbild1.png","media/Indexical/LinksSchmiSchmu/Standbild2.png","blossin","left","right","left","right","pseudo-word demonstrative",1,0,1,0,"pseudo-word demonstrative_2021-11-04_09h40.18.796","teen"
"425",10,"female","2021-11-04_09h40.18.796",7.4025,6.578,"media/Indexical/RechtsSchmiSchmu/Standbild1.png","media/Indexical/RechtsSchmiSchmu/Standbild2.png","blossin","right","left","left","right","pseudo-word demonstrative",2,0,1,0,"pseudo-word demonstrative_2021-11-04_09h40.18.796","teen"
"426",10,"female","2021-11-04_09h40.18.796",9.207,8.3575,"media/Indexical/LinksSchmuSchmi/Standbild1.png","media/Indexical/LinksSchmuSchmi/Standbild2.png","blossin","left","right","left","right","pseudo-word demonstrative",3,1,0,0,"pseudo-word demonstrative_2021-11-04_09h40.18.796","teen"
"427",10,"female","2021-11-04_09h40.18.796",6.6645,8.7981,"media/Indexical/RechtsSchmiSchmu/Standbild1.png","media/Indexical/RechtsSchmiSchmu/Standbild2.png","blossin","right","left","right","left","pseudo-word demonstrative",4,0,1,0,"pseudo-word demonstrative_2021-11-04_09h40.18.796","teen"
"428",10,"female","2021-11-04_09h40.18.796",7.1791,7.4933,"media/Indexical/RechtsSchmuSchmi/Standbild1.png","media/Indexical/RechtsSchmuSchmi/Standbild2.png","blossin","right","left","left","right","pseudo-word demonstrative",5,0,1,0,"pseudo-word demonstrative_2021-11-04_09h40.18.796","teen"
"429",10,"female","2021-11-04_09h40.18.796",6.8105,11.0095,"media/Indexical/LinksSchmuSchmi/Standbild1.png","media/Indexical/LinksSchmuSchmi/Standbild2.png","blossin","left","right","left","right","pseudo-word demonstrative",6,0,1,0,"pseudo-word demonstrative_2021-11-04_09h40.18.796","teen"
"430",10,"female","2021-11-04_09h40.18.796",7.9808,5.219,"media/Indexical/RechtsSchmuSchmi/Standbild1.png","media/Indexical/RechtsSchmuSchmi/Standbild2.png","blossin","right","left","right","left","pseudo-word demonstrative",7,0,1,0,"pseudo-word demonstrative_2021-11-04_09h40.18.796","teen"
"431",10,"female","2021-11-04_09h40.18.796",6.1686,6.4784,"media/Indexical/LinksSchmiSchmu/Standbild1.png","media/Indexical/LinksSchmiSchmu/Standbild2.png","blossin","left","right","right","left","pseudo-word demonstrative",8,0,1,0,"pseudo-word demonstrative_2021-11-04_09h40.18.796","teen"
"436",10,"female","2021-11-04_10h32.56.444",9.3315,11.2544,"media/Indexical/RechtsSchmiSchmu/Standbild1.png","media/Indexical/RechtsSchmiSchmu/Standbild2.png","blossin","right","left","right","left","pseudo-word demonstrative",1,0,1,0,"pseudo-word demonstrative_2021-11-04_10h32.56.444","teen"
"437",10,"female","2021-11-04_10h32.56.444",5.0501,3.7815,"media/Indexical/LinksSchmuSchmi/Standbild1.png","media/Indexical/LinksSchmuSchmi/Standbild2.png","blossin","left","right","right","left","pseudo-word demonstrative",2,0,1,0,"pseudo-word demonstrative_2021-11-04_10h32.56.444","teen"
"438",10,"female","2021-11-04_10h32.56.444",9.3818,4.4893,"media/Indexical/LinksSchmiSchmu/Standbild1.png","media/Indexical/LinksSchmiSchmu/Standbild2.png","blossin","left","right","right","left","pseudo-word demonstrative",3,0,1,0,"pseudo-word demonstrative_2021-11-04_10h32.56.444","teen"
"439",10,"female","2021-11-04_10h32.56.444",4.079,4.2069,"media/Indexical/LinksSchmuSchmi/Standbild1.png","media/Indexical/LinksSchmuSchmi/Standbild2.png","blossin","left","right","left","right","pseudo-word demonstrative",4,0,1,0,"pseudo-word demonstrative_2021-11-04_10h32.56.444","teen"
"440",10,"female","2021-11-04_10h32.56.444",4.998,4.2413,"media/Indexical/RechtsSchmuSchmi/Standbild1.png","media/Indexical/RechtsSchmuSchmi/Standbild2.png","blossin","right","left","left","right","pseudo-word demonstrative",5,1,0,0,"pseudo-word demonstrative_2021-11-04_10h32.56.444","teen"
"441",10,"female","2021-11-04_10h32.56.444",5.0838,3.986,"media/Indexical/RechtsSchmuSchmi/Standbild1.png","media/Indexical/RechtsSchmuSchmi/Standbild2.png","blossin","right","left","left","right","pseudo-word demonstrative",6,0,1,0,"pseudo-word demonstrative_2021-11-04_10h32.56.444","teen"
"442",10,"female","2021-11-04_10h32.56.444",4.4024,4.8632,"media/Indexical/LinksSchmiSchmu/Standbild1.png","media/Indexical/LinksSchmiSchmu/Standbild2.png","blossin","left","right","left","right","pseudo-word demonstrative",7,0,1,0,"pseudo-word demonstrative_2021-11-04_10h32.56.444","teen"
"443",10,"female","2021-11-04_10h32.56.444",4.6784,3.8325,"media/Indexical/RechtsSchmiSchmu/Standbild1.png","media/Indexical/RechtsSchmiSchmu/Standbild2.png","blossin","right","left","left","right","pseudo-word demonstrative",8,0,1,0,"pseudo-word demonstrative_2021-11-04_10h32.56.444","teen"
"448",11,"male","2021-11-04_11h11.06.921",10.0388,6.1885,"media/Indexical/RechtsSchmiSchmu/Standbild1.png","media/Indexical/RechtsSchmiSchmu/Standbild2.png","blossin","right","left","left","right","pseudo-word demonstrative",1,1,0,0,"pseudo-word demonstrative_2021-11-04_11h11.06.921","teen"
"449",11,"male","2021-11-04_11h11.06.921",8.5642,5.2346,"media/Indexical/LinksSchmiSchmu/Standbild1.png","media/Indexical/LinksSchmiSchmu/Standbild2.png","blossin","left","right","right","right","pseudo-word demonstrative",2,0,0,0,"pseudo-word demonstrative_2021-11-04_11h11.06.921","teen"
"450",11,"male","2021-11-04_11h11.06.921",5.0854,4.4515,"media/Indexical/RechtsSchmuSchmi/Standbild1.png","media/Indexical/RechtsSchmuSchmi/Standbild2.png","blossin","right","left","left","left","pseudo-word demonstrative",3,0,0,0,"pseudo-word demonstrative_2021-11-04_11h11.06.921","teen"
"451",11,"male","2021-11-04_11h11.06.921",4.5081,5.9235,"media/Indexical/LinksSchmiSchmu/Standbild1.png","media/Indexical/LinksSchmiSchmu/Standbild2.png","blossin","left","right","left","left","pseudo-word demonstrative",4,0,0,0,"pseudo-word demonstrative_2021-11-04_11h11.06.921","teen"
"452",11,"male","2021-11-04_11h11.06.921",4.4748,4.8705,"media/Indexical/RechtsSchmiSchmu/Standbild1.png","media/Indexical/RechtsSchmiSchmu/Standbild2.png","blossin","right","left","left","right","pseudo-word demonstrative",5,0,1,0,"pseudo-word demonstrative_2021-11-04_11h11.06.921","teen"
"453",11,"male","2021-11-04_11h11.06.921",4.0968,3.8237,"media/Indexical/LinksSchmuSchmi/Standbild1.png","media/Indexical/LinksSchmuSchmi/Standbild2.png","blossin","left","right","left","right","pseudo-word demonstrative",6,0,1,0,"pseudo-word demonstrative_2021-11-04_11h11.06.921","teen"
"454",11,"male","2021-11-04_11h11.06.921",4.7894,4.5214,"media/Indexical/RechtsSchmuSchmi/Standbild1.png","media/Indexical/RechtsSchmuSchmi/Standbild2.png","blossin","right","left","right","left","pseudo-word demonstrative",7,0,1,0,"pseudo-word demonstrative_2021-11-04_11h11.06.921","teen"
"455",11,"male","2021-11-04_11h11.06.921",5.7585,3.8073,"media/Indexical/LinksSchmuSchmi/Standbild1.png","media/Indexical/LinksSchmuSchmi/Standbild2.png","blossin","left","right","left","right","pseudo-word demonstrative",8,1,0,0,"pseudo-word demonstrative_2021-11-04_11h11.06.921","teen"
"460",10,"female","2021-11-04_12h36.47.707",16.0524,7.2018,"media/Indexical/LinksSchmiSchmu/Standbild1.png","media/Indexical/LinksSchmiSchmu/Standbild2.png","blossin","left","right","right","left","pseudo-word demonstrative",1,1,0,0,"pseudo-word demonstrative_2021-11-04_12h36.47.707","teen"
"461",10,"female","2021-11-04_12h36.47.707",5.5764,4.8953,"media/Indexical/LinksSchmuSchmi/Standbild1.png","media/Indexical/LinksSchmuSchmi/Standbild2.png","blossin","left","right","left","left","pseudo-word demonstrative",2,0,0,0,"pseudo-word demonstrative_2021-11-04_12h36.47.707","teen"
"462",10,"female","2021-11-04_12h36.47.707",6.7316,8.5877,"media/Indexical/LinksSchmiSchmu/Standbild1.png","media/Indexical/LinksSchmiSchmu/Standbild2.png","blossin","left","right","right","left","pseudo-word demonstrative",3,0,1,0,"pseudo-word demonstrative_2021-11-04_12h36.47.707","teen"
"463",10,"female","2021-11-04_12h36.47.707",7.2939,5.3014,"media/Indexical/RechtsSchmiSchmu/Standbild1.png","media/Indexical/RechtsSchmiSchmu/Standbild2.png","blossin","right","left","left","right","pseudo-word demonstrative",4,0,1,0,"pseudo-word demonstrative_2021-11-04_12h36.47.707","teen"
"464",10,"female","2021-11-04_12h36.47.707",7.8165,7.4527,"media/Indexical/LinksSchmuSchmi/Standbild1.png","media/Indexical/LinksSchmuSchmi/Standbild2.png","blossin","left","right","right","left","pseudo-word demonstrative",5,0,1,0,"pseudo-word demonstrative_2021-11-04_12h36.47.707","teen"
"465",10,"female","2021-11-04_12h36.47.707",10.9466,6.633,"media/Indexical/RechtsSchmiSchmu/Standbild1.png","media/Indexical/RechtsSchmiSchmu/Standbild2.png","blossin","right","left","right","right","pseudo-word demonstrative",6,0,0,0,"pseudo-word demonstrative_2021-11-04_12h36.47.707","teen"
"466",10,"female","2021-11-04_12h36.47.707",6.8348,9.3879,"media/Indexical/RechtsSchmuSchmi/Standbild1.png","media/Indexical/RechtsSchmuSchmi/Standbild2.png","blossin","right","left","right","right","pseudo-word demonstrative",7,1,1,1,"pseudo-word demonstrative_2021-11-04_12h36.47.707","teen"
"467",10,"female","2021-11-04_12h36.47.707",6.1283,8.3339,"media/Indexical/RechtsSchmuSchmi/Standbild1.png","media/Indexical/RechtsSchmuSchmi/Standbild2.png","blossin","right","left","right","left","pseudo-word demonstrative",8,0,1,0,"pseudo-word demonstrative_2021-11-04_12h36.47.707","teen"
"472",11,"male","2021-11-04_13h18.32.903",8.3942,7.5284,"media/Indexical/RechtsSchmiSchmu/Standbild1.png","media/Indexical/RechtsSchmiSchmu/Standbild2.png","blossin","right","left","left","right","pseudo-word demonstrative",1,1,0,0,"pseudo-word demonstrative_2021-11-04_13h18.32.903","teen"
"473",11,"male","2021-11-04_13h18.32.903",7.6571,9.0028,"media/Indexical/RechtsSchmuSchmi/Standbild1.png","media/Indexical/RechtsSchmuSchmi/Standbild2.png","blossin","right","left","left","right","pseudo-word demonstrative",2,1,0,0,"pseudo-word demonstrative_2021-11-04_13h18.32.903","teen"
"474",11,"male","2021-11-04_13h18.32.903",8.2663,6.9128,"media/Indexical/RechtsSchmuSchmi/Standbild1.png","media/Indexical/RechtsSchmuSchmi/Standbild2.png","blossin","right","left","right","right","pseudo-word demonstrative",3,1,1,1,"pseudo-word demonstrative_2021-11-04_13h18.32.903","teen"
"475",11,"male","2021-11-04_13h18.32.903",5.7723,3.6261,"media/Indexical/LinksSchmuSchmi/Standbild1.png","media/Indexical/LinksSchmuSchmi/Standbild2.png","blossin","left","right","left","left","pseudo-word demonstrative",4,1,1,1,"pseudo-word demonstrative_2021-11-04_13h18.32.903","teen"
"476",11,"male","2021-11-04_13h18.32.903",8.8169,4.8845,"media/Indexical/LinksSchmiSchmu/Standbild1.png","media/Indexical/LinksSchmiSchmu/Standbild2.png","blossin","left","right","right","right","pseudo-word demonstrative",5,1,1,1,"pseudo-word demonstrative_2021-11-04_13h18.32.903","teen"
"477",11,"male","2021-11-04_13h18.32.903",5.2137,3.5053,"media/Indexical/LinksSchmuSchmi/Standbild1.png","media/Indexical/LinksSchmuSchmi/Standbild2.png","blossin","left","right","right","right","pseudo-word demonstrative",6,1,1,1,"pseudo-word demonstrative_2021-11-04_13h18.32.903","teen"
"478",11,"male","2021-11-04_13h18.32.903",7.7427,3.7519,"media/Indexical/LinksSchmiSchmu/Standbild1.png","media/Indexical/LinksSchmiSchmu/Standbild2.png","blossin","left","right","left","left","pseudo-word demonstrative",7,1,1,1,"pseudo-word demonstrative_2021-11-04_13h18.32.903","teen"
"479",11,"male","2021-11-04_13h18.32.903",4.6928,4.1965,"media/Indexical/RechtsSchmiSchmu/Standbild1.png","media/Indexical/RechtsSchmiSchmu/Standbild2.png","blossin","right","left","right","right","pseudo-word demonstrative",8,1,1,1,"pseudo-word demonstrative_2021-11-04_13h18.32.903","teen"
"484",5,"male","2021-11-05_09h41.30.858",23.9574,29.8798,"media/Indexical/LinksSchmuSchmi/Standbild1.png","media/Indexical/LinksSchmuSchmi/Standbild2.png","blossin","left","right","right","left","pseudo-word demonstrative",1,1,0,0,"pseudo-word demonstrative_2021-11-05_09h41.30.858","child"
"485",5,"male","2021-11-05_09h41.30.858",17.195,21.4641,"media/Indexical/LinksSchmuSchmi/Standbild1.png","media/Indexical/LinksSchmuSchmi/Standbild2.png","blossin","left","right","left","right","pseudo-word demonstrative",2,1,0,0,"pseudo-word demonstrative_2021-11-05_09h41.30.858","child"
"486",5,"male","2021-11-05_09h41.30.858",13.3437,16.0192,"media/Indexical/LinksSchmiSchmu/Standbild1.png","media/Indexical/LinksSchmiSchmu/Standbild2.png","blossin","left","right","left","right","pseudo-word demonstrative",3,0,1,0,"pseudo-word demonstrative_2021-11-05_09h41.30.858","child"
"487",5,"male","2021-11-05_09h41.30.858",10.2452,14.7135,"media/Indexical/RechtsSchmiSchmu/Standbild1.png","media/Indexical/RechtsSchmiSchmu/Standbild2.png","blossin","right","left","left","right","pseudo-word demonstrative",4,0,1,0,"pseudo-word demonstrative_2021-11-05_09h41.30.858","child"
"488",5,"male","2021-11-05_09h41.30.858",13.1669,10.0404,"media/Indexical/LinksSchmiSchmu/Standbild1.png","media/Indexical/LinksSchmiSchmu/Standbild2.png","blossin","left","right","left","right","pseudo-word demonstrative",5,1,0,0,"pseudo-word demonstrative_2021-11-05_09h41.30.858","child"
"489",5,"male","2021-11-05_09h41.30.858",12.264,15.1241,"media/Indexical/RechtsSchmuSchmi/Standbild1.png","media/Indexical/RechtsSchmuSchmi/Standbild2.png","blossin","right","left","right","left","pseudo-word demonstrative",6,0,1,0,"pseudo-word demonstrative_2021-11-05_09h41.30.858","child"
"490",5,"male","2021-11-05_09h41.30.858",11.0109,16.6242,"media/Indexical/RechtsSchmuSchmi/Standbild1.png","media/Indexical/RechtsSchmuSchmi/Standbild2.png","blossin","right","left","right","left","pseudo-word demonstrative",7,1,0,0,"pseudo-word demonstrative_2021-11-05_09h41.30.858","child"
"491",5,"male","2021-11-05_09h41.30.858",19.0413,20.4532,"media/Indexical/RechtsSchmiSchmu/Standbild1.png","media/Indexical/RechtsSchmiSchmu/Standbild2.png","blossin","right","left","right","left","pseudo-word demonstrative",8,0,1,0,"pseudo-word demonstrative_2021-11-05_09h41.30.858","child"
"496",6,"male","2021-11-05_09h54.44.471",10.7445,5.2399,"media/Indexical/RechtsSchmiSchmu/Standbild1.png","media/Indexical/RechtsSchmiSchmu/Standbild2.png","blossin","right","left","left","right","pseudo-word demonstrative",1,0,1,0,"pseudo-word demonstrative_2021-11-05_09h54.44.471","child"
"497",6,"male","2021-11-05_09h54.44.471",7.2373,7.2422,"media/Indexical/RechtsSchmuSchmi/Standbild1.png","media/Indexical/RechtsSchmuSchmi/Standbild2.png","blossin","right","left","right","left","pseudo-word demonstrative",2,1,0,0,"pseudo-word demonstrative_2021-11-05_09h54.44.471","child"
"498",6,"male","2021-11-05_09h54.44.471",5.7082,5.9579,"media/Indexical/LinksSchmuSchmi/Standbild1.png","media/Indexical/LinksSchmuSchmi/Standbild2.png","blossin","left","right","right","left","pseudo-word demonstrative",3,1,0,0,"pseudo-word demonstrative_2021-11-05_09h54.44.471","child"
"499",6,"male","2021-11-05_09h54.44.471",5.2461,11.6294,"media/Indexical/LinksSchmiSchmu/Standbild1.png","media/Indexical/LinksSchmiSchmu/Standbild2.png","blossin","left","right","right","left","pseudo-word demonstrative",4,1,0,0,"pseudo-word demonstrative_2021-11-05_09h54.44.471","child"
"500",6,"male","2021-11-05_09h54.44.471",7.2494,5.9572,"media/Indexical/LinksSchmiSchmu/Standbild1.png","media/Indexical/LinksSchmiSchmu/Standbild2.png","blossin","left","right","right","left","pseudo-word demonstrative",5,0,1,0,"pseudo-word demonstrative_2021-11-05_09h54.44.471","child"
"501",6,"male","2021-11-05_09h54.44.471",7.2963,6.2021,"media/Indexical/RechtsSchmuSchmi/Standbild1.png","media/Indexical/RechtsSchmuSchmi/Standbild2.png","blossin","right","left","left","right","pseudo-word demonstrative",6,1,0,0,"pseudo-word demonstrative_2021-11-05_09h54.44.471","child"
"502",6,"male","2021-11-05_09h54.44.471",5.9914,5.6544,"media/Indexical/LinksSchmuSchmi/Standbild1.png","media/Indexical/LinksSchmuSchmi/Standbild2.png","blossin","left","right","right","left","pseudo-word demonstrative",7,0,1,0,"pseudo-word demonstrative_2021-11-05_09h54.44.471","child"
"503",6,"male","2021-11-05_09h54.44.471",6.6573,6.8845,"media/Indexical/RechtsSchmiSchmu/Standbild1.png","media/Indexical/RechtsSchmiSchmu/Standbild2.png","blossin","right","left","left","right","pseudo-word demonstrative",8,1,0,0,"pseudo-word demonstrative_2021-11-05_09h54.44.471","child"
"508",5,"female","2021-11-05_10h24.27.048",8.8406,7.2055,"media/Indexical/RechtsSchmuSchmi/Standbild1.png","media/Indexical/RechtsSchmuSchmi/Standbild2.png","blossin","right","left","left","right","pseudo-word demonstrative",1,0,1,0,"pseudo-word demonstrative_2021-11-05_10h24.27.048","child"
"509",5,"female","2021-11-05_10h24.27.048",5.9334,7.6201,"media/Indexical/RechtsSchmiSchmu/Standbild1.png","media/Indexical/RechtsSchmiSchmu/Standbild2.png","blossin","right","left","left","right","pseudo-word demonstrative",2,1,0,0,"pseudo-word demonstrative_2021-11-05_10h24.27.048","child"
"510",5,"female","2021-11-05_10h24.27.048",7.6588,5.9448,"media/Indexical/RechtsSchmiSchmu/Standbild1.png","media/Indexical/RechtsSchmiSchmu/Standbild2.png","blossin","right","left","right","left","pseudo-word demonstrative",3,1,0,0,"pseudo-word demonstrative_2021-11-05_10h24.27.048","child"
"511",5,"female","2021-11-05_10h24.27.048",7.306,6.4529,"media/Indexical/LinksSchmiSchmu/Standbild1.png","media/Indexical/LinksSchmiSchmu/Standbild2.png","blossin","left","right","left","left","pseudo-word demonstrative",4,1,1,1,"pseudo-word demonstrative_2021-11-05_10h24.27.048","child"
"512",5,"female","2021-11-05_10h24.27.048",7.3086,6.1246,"media/Indexical/LinksSchmuSchmi/Standbild1.png","media/Indexical/LinksSchmuSchmi/Standbild2.png","blossin","left","right","right","left","pseudo-word demonstrative",5,1,0,0,"pseudo-word demonstrative_2021-11-05_10h24.27.048","child"
"513",5,"female","2021-11-05_10h24.27.048",6.8472,5.6713,"media/Indexical/LinksSchmuSchmi/Standbild1.png","media/Indexical/LinksSchmuSchmi/Standbild2.png","blossin","left","right","left","right","pseudo-word demonstrative",6,1,0,0,"pseudo-word demonstrative_2021-11-05_10h24.27.048","child"
"514",5,"female","2021-11-05_10h24.27.048",7.1076,7.3307,"media/Indexical/RechtsSchmuSchmi/Standbild1.png","media/Indexical/RechtsSchmuSchmi/Standbild2.png","blossin","right","left","right","left","pseudo-word demonstrative",7,0,1,0,"pseudo-word demonstrative_2021-11-05_10h24.27.048","child"
"515",5,"female","2021-11-05_10h24.27.048",7.1813,5.1796,"media/Indexical/LinksSchmiSchmu/Standbild1.png","media/Indexical/LinksSchmiSchmu/Standbild2.png","blossin","left","right","right","left","pseudo-word demonstrative",8,1,0,0,"pseudo-word demonstrative_2021-11-05_10h24.27.048","child"
"520",5,"female","2021-11-05_12h20.41.225",32.9664,15.1558,"media/Indexical/LinksSchmiSchmu/Standbild1.png","media/Indexical/LinksSchmiSchmu/Standbild2.png","blossin","left","right","right","left","pseudo-word demonstrative",1,0,1,0,"pseudo-word demonstrative_2021-11-05_12h20.41.225","child"
"521",5,"female","2021-11-05_12h20.41.225",10.4902,19.3708,"media/Indexical/RechtsSchmuSchmi/Standbild1.png","media/Indexical/RechtsSchmuSchmi/Standbild2.png","blossin","right","left","right","left","pseudo-word demonstrative",2,1,0,0,"pseudo-word demonstrative_2021-11-05_12h20.41.225","child"
"522",5,"female","2021-11-05_12h20.41.225",16.9935,33.8055,"media/Indexical/RechtsSchmuSchmi/Standbild1.png","media/Indexical/RechtsSchmuSchmi/Standbild2.png","blossin","right","left","right","left","pseudo-word demonstrative",3,0,1,0,"pseudo-word demonstrative_2021-11-05_12h20.41.225","child"
"523",5,"female","2021-11-05_12h20.41.225",19.1546,11.3915,"media/Indexical/LinksSchmuSchmi/Standbild1.png","media/Indexical/LinksSchmuSchmi/Standbild2.png","blossin","left","right","left","right","pseudo-word demonstrative",4,1,0,0,"pseudo-word demonstrative_2021-11-05_12h20.41.225","child"
"524",5,"female","2021-11-05_12h20.41.225",9.9796,13.255,"media/Indexical/LinksSchmuSchmi/Standbild1.png","media/Indexical/LinksSchmuSchmi/Standbild2.png","blossin","left","right","left","right","pseudo-word demonstrative",5,0,1,0,"pseudo-word demonstrative_2021-11-05_12h20.41.225","child"
"525",5,"female","2021-11-05_12h20.41.225",12.3077,9.6061,"media/Indexical/LinksSchmiSchmu/Standbild1.png","media/Indexical/LinksSchmiSchmu/Standbild2.png","blossin","left","right","left","right","pseudo-word demonstrative",6,0,1,0,"pseudo-word demonstrative_2021-11-05_12h20.41.225","child"
"526",5,"female","2021-11-05_12h20.41.225",20.8747,7.6259,"media/Indexical/RechtsSchmiSchmu/Standbild1.png","media/Indexical/RechtsSchmiSchmu/Standbild2.png","blossin","right","left","left","right","pseudo-word demonstrative",7,1,0,0,"pseudo-word demonstrative_2021-11-05_12h20.41.225","child"
"527",5,"female","2021-11-05_12h20.41.225",9.9671,7.8514,"media/Indexical/RechtsSchmiSchmu/Standbild1.png","media/Indexical/RechtsSchmiSchmu/Standbild2.png","blossin","right","left","left","right","pseudo-word demonstrative",8,0,1,0,"pseudo-word demonstrative_2021-11-05_12h20.41.225","child"
"532",6,"male","2021-11-05_13h02.33.509",19.1367,13.3423,"media/Indexical/RechtsSchmiSchmu/Standbild1.png","media/Indexical/RechtsSchmiSchmu/Standbild2.png","blossin","right","left","right","left","pseudo-word demonstrative",1,0,1,0,"pseudo-word demonstrative_2021-11-05_13h02.33.509","child"
"533",6,"male","2021-11-05_13h02.33.509",11.1546,5.9941,"media/Indexical/LinksSchmuSchmi/Standbild1.png","media/Indexical/LinksSchmuSchmi/Standbild2.png","blossin","left","right","right","left","pseudo-word demonstrative",2,0,1,0,"pseudo-word demonstrative_2021-11-05_13h02.33.509","child"
"534",6,"male","2021-11-05_13h02.33.509",7.3765,8.086,"media/Indexical/LinksSchmiSchmu/Standbild1.png","media/Indexical/LinksSchmiSchmu/Standbild2.png","blossin","left","right","left","right","pseudo-word demonstrative",3,0,1,0,"pseudo-word demonstrative_2021-11-05_13h02.33.509","child"
"535",6,"male","2021-11-05_13h02.33.509",8.5837,6.5704,"media/Indexical/RechtsSchmiSchmu/Standbild1.png","media/Indexical/RechtsSchmiSchmu/Standbild2.png","blossin","right","left","right","left","pseudo-word demonstrative",4,1,0,0,"pseudo-word demonstrative_2021-11-05_13h02.33.509","child"
"536",6,"male","2021-11-05_13h02.33.509",9.2463,6.4635,"media/Indexical/RechtsSchmuSchmi/Standbild1.png","media/Indexical/RechtsSchmuSchmi/Standbild2.png","blossin","right","left","left","right","pseudo-word demonstrative",5,0,1,0,"pseudo-word demonstrative_2021-11-05_13h02.33.509","child"
"537",6,"male","2021-11-05_13h02.33.509",8.8173,8.0977,"media/Indexical/RechtsSchmuSchmi/Standbild1.png","media/Indexical/RechtsSchmuSchmi/Standbild2.png","blossin","right","left","left","right","pseudo-word demonstrative",6,1,0,0,"pseudo-word demonstrative_2021-11-05_13h02.33.509","child"
